Instructions_Loop.thisRepN,Instructions_Loop.thisTrialN,Instructions_Loop.thisN,Instructions_Loop.thisIndex,Instructions_Loop.ran,Top,Top_Bottom,TBMT_int,Middle_Top,Middle,Middle_Bottom,Bottom_Top,Bottom,Photo,participant,session,date,expName,psychopyVersion,OS,frameRate,Redo_Instructions_Resp.keys,Redo_Instructions_Resp.rt,Nback_Transition_Resp_Enc.keys,Nback_Transition_Resp_Enc.rt,Encoding_Resp.keys,Encoding_Resp.corr,Encoding_Resp.rt,Practice_Blocks.thisRepN,Practice_Blocks.thisTrialN,Practice_Blocks.thisN,Practice_Blocks.thisIndex,Practice_Blocks.ran,Scene,encAns,Practice_Enc_Break_Resp.keys,Practice_Enc_Break_Resp.rt,Practice_Enc_Break_Loop.thisRepN,Practice_Enc_Break_Loop.thisTrialN,Practice_Enc_Break_Loop.thisN,Practice_Enc_Break_Loop.thisIndex,Practice_Enc_Break_Loop.ran,Practice_Loop_Order.thisRepN,Practice_Loop_Order.thisTrialN,Practice_Loop_Order.thisN,Practice_Loop_Order.thisIndex,Practice_Loop_Order.ran,practiceFile,Nback_Transition_Resp.keys,Nback_Transition_Resp.rt,Nback_Resp.keys,Nback_Resp.corr,Nback_Resp.rt,Practice_DBack_Loop.thisRepN,Practice_DBack_Loop.thisTrialN,Practice_DBack_Loop.thisN,Practice_DBack_Loop.thisIndex,Practice_DBack_Loop.ran,thisAlphaNum,ANAns,Color,Practice_DBlock_Loop.thisRepN,Practice_DBlock_Loop.thisTrialN,Practice_DBlock_Loop.thisN,Practice_DBlock_Loop.thisIndex,Practice_DBlock_Loop.ran,ANOrder,BlockTitle,Blocks.thisRepN,Blocks.thisTrialN,Blocks.thisN,Blocks.thisIndex,Blocks.ran,AttnResp_keys.keys,AttnResp_keys.rt,Enc_Break_Resp.keys,Enc_Break_Resp.rt,Enc_Break_Loop.thisRepN,Enc_Break_Loop.thisTrialN,Enc_Break_Loop.thisN,Enc_Break_Loop.thisIndex,Enc_Break_Loop.ran,AttnCheck,Group_Order.thisRepN,Group_Order.thisTrialN,Group_Order.thisN,Group_Order.thisIndex,Group_Order.ran,blockFile,attnFile,Enc_Break_Loop2.thisRepN,Enc_Break_Loop2.thisTrialN,Enc_Break_Loop2.thisN,Enc_Break_Loop2.thisIndex,Enc_Break_Loop2.ran,DBack_Loop.thisRepN,DBack_Loop.thisTrialN,DBack_Loop.thisN,DBack_Loop.thisIndex,DBack_Loop.ran,DBlock_Loop.thisRepN,DBlock_Loop.thisTrialN,DBlock_Loop.thisN,DBlock_Loop.thisIndex,DBlock_Loop.ran
0,0,0,0,1,NaN,NaN,NaN,NaN,welcome,NaN,NaN,press SPACE to continue,Empty.png,274,1,2024-01-22_09h06.41.306,Online_SceneSrcMD_E,2020.2.10,MacIntel,60,,,,,,,,,,,,,,,,,,,,,,,,,,,,,,,,,,,,,,,,,,,,,,,,,,,,,,,,,,,,,,,,,,,,,,,,,,,,,,,,,,,,
0,1,1,1,1,NaN,NaN,NaN,in this experiment you will categorize images and symbols.,NaN,NaN,NaN,press SPACE to continue,Empty.png,274,1,2024-01-22_09h06.41.306,Online_SceneSrcMD_E,2020.2.10,MacIntel,60,,,,,,,,,,,,,,,,,,,,,,,,,,,,,,,,,,,,,,,,,,,,,,,,,,,,,,,,,,,,,,,,,,,,,,,,,,,,,,,,,,,,
0,2,2,2,1,"during the image categorization task, scenes will be presented on the screen one at a time.",NaN,NaN,each scene will be surrounded by a colored frame.,NaN,your task is to view each image and report if the frame color appears in the scene.,NaN,press SPACE to continue,Empty.png,274,1,2024-01-22_09h06.41.306,Online_SceneSrcMD_E,2020.2.10,MacIntel,60,,,,,,,,,,,,,,,,,,,,,,,,,,,,,,,,,,,,,,,,,,,,,,,,,,,,,,,,,,,,,,,,,,,,,,,,,,,,,,,,,,,,
0,3,3,3,1,"if the frame color is present in the scene, press 'P'.","otherwise, press 'Q'.",NaN,each image will be presented for four seconds.,NaN,please respond during this time.,NaN,press SPACE to continue,Empty.png,274,1,2024-01-22_09h06.41.306,Online_SceneSrcMD_E,2020.2.10,MacIntel,60,,,,,,,,,,,,,,,,,,,,,,,,,,,,,,,,,,,,,,,,,,,,,,,,,,,,,,,,,,,,,,,,,,,,,,,,,,,,,,,,,,,,
0,4,4,4,1,NaN,NaN,NaN,three blocks of images will be presented.,NaN,"after each block, you will have the option to take a short break.",NaN,press SPACE to continue,Empty.png,274,1,2024-01-22_09h06.41.306,Online_SceneSrcMD_E,2020.2.10,MacIntel,60,,,,,,,,,,,,,,,,,,,,,,,,,,,,,,,,,,,,,,,,,,,,,,,,,,,,,,,,,,,,,,,,,,,,,,,,,,,,,,,,,,,,
0,5,5,5,1,some of the images will portray scenes with emotional content.,NaN,NaN,if you become uncomfortable please remember that you can leave the experiment at any point without penalty.,NaN,NaN,NaN,press SPACE to continue,Empty.png,274,1,2024-01-22_09h06.41.306,Online_SceneSrcMD_E,2020.2.10,MacIntel,60,,,,,,,,,,,,,,,,,,,,,,,,,,,,,,,,,,,,,,,,,,,,,,,,,,,,,,,,,,,,,,,,,,,,,,,,,,,,,,,,,,,,
0,6,6,6,1,example of an image depicting a scene with emotional content:,NaN,NaN,NaN,NaN,NaN,'P' would be the correct response as blue appears in the scene.,press SPACE to continue,TS08.png,274,1,2024-01-22_09h06.41.306,Online_SceneSrcMD_E,2020.2.10,MacIntel,60,,,,,,,,,,,,,,,,,,,,,,,,,,,,,,,,,,,,,,,,,,,,,,,,,,,,,,,,,,,,,,,,,,,,,,,,,,,,,,,,,,,,
0,7,7,7,1,example of an image depicting a scene with neutral content:,NaN,NaN,NaN,NaN,NaN,'Q' would be the correct response as red does not appear in the scene.,press SPACE to continue,TS06.png,274,1,2024-01-22_09h06.41.306,Online_SceneSrcMD_E,2020.2.10,MacIntel,60,,,,,,,,,,,,,,,,,,,,,,,,,,,,,,,,,,,,,,,,,,,,,,,,,,,,,,,,,,,,,,,,,,,,,,,,,,,,,,,,,,,,
0,8,8,8,1,NaN,NaN,NaN,"after seeing both blocks of images, you will complete a symbol categorization task.",NaN,NaN,NaN,press SPACE to continue,Empty.png,274,1,2024-01-22_09h06.41.306,Online_SceneSrcMD_E,2020.2.10,MacIntel,60,,,,,,,,,,,,,,,,,,,,,,,,,,,,,,,,,,,,,,,,,,,,,,,,,,,,,,,,,,,,,,,,,,,,,,,,,,,,,,,,,,,,
0,9,9,9,1,"during the symbol categorization task, symbols will be presented on the screen one at a time.",NaN,NaN,NaN,NaN,your task is to view each symbol and report its identity.,NaN,press SPACE to continue,Empty.png,274,1,2024-01-22_09h06.41.306,Online_SceneSrcMD_E,2020.2.10,MacIntel,60,,,,,,,,,,,,,,,,,,,,,,,,,,,,,,,,,,,,,,,,,,,,,,,,,,,,,,,,,,,,,,,,,,,,,,,,,,,,,,,,,,,,
0,10,10,10,1,"if you see a number, press 'N'","if you see an alphabetical letter, press 'A'",NaN,each symbol will be presented for three seconds.,NaN,please respond during this time.,NaN,press SPACE to continue,Empty.png,274,1,2024-01-22_09h06.41.306,Online_SceneSrcMD_E,2020.2.10,MacIntel,60,,,,,,,,,,,,,,,,,,,,,,,,,,,,,,,,,,,,,,,,,,,,,,,,,,,,,,,,,,,,,,,,,,,,,,,,,,,,,,,,,,,,
0,11,11,11,1,NaN,NaN,NaN,three blocks will be presented -- there will be no breaks in between the three blocks.,NaN,NaN,NaN,press SPACE to continue,Empty.png,274,1,2024-01-22_09h06.41.306,Online_SceneSrcMD_E,2020.2.10,MacIntel,60,,,,,,,,,,,,,,,,,,,,,,,,,,,,,,,,,,,,,,,,,,,,,,,,,,,,,,,,,,,,,,,,,,,,,,,,,,,,,,,,,,,,
0,12,12,12,1,example of a number:,NaN,NaN,NaN,3,NaN,'N' would be the correct response as the symbol is a number.,press SPACE to continue,Empty.png,274,1,2024-01-22_09h06.41.306,Online_SceneSrcMD_E,2020.2.10,MacIntel,60,,,,,,,,,,,,,,,,,,,,,,,,,,,,,,,,,,,,,,,,,,,,,,,,,,,,,,,,,,,,,,,,,,,,,,,,,,,,,,,,,,,,
0,13,13,13,1,example of a alphabetical letter:,NaN,NaN,NaN,C,NaN,'A' would be the correct response as the symbol is a letter.,press SPACE to continue,Empty.png,274,1,2024-01-22_09h06.41.306,Online_SceneSrcMD_E,2020.2.10,MacIntel,60,,,,,,,,,,,,,,,,,,,,,,,,,,,,,,,,,,,,,,,,,,,,,,,,,,,,,,,,,,,,,,,,,,,,,,,,,,,,,,,,,,,,
0,14,14,14,1,NaN,NaN,NaN,this is the end of the instructions,NaN,NaN,NaN,press SPACE to continue,Empty.png,274,1,2024-01-22_09h06.41.306,Online_SceneSrcMD_E,2020.2.10,MacIntel,60,,,,,,,,,,,,,,,,,,,,,,,,,,,,,,,,,,,,,,,,,,,,,,,,,,,,,,,,,,,,,,,,,,,,,,,,,,,,,,,,,,,,
,,,,,,,,,,,,,,274,1,2024-01-22_09h06.41.306,Online_SceneSrcMD_E,2020.2.10,MacIntel,60,p,2.502,space,3.8925,q,0,1.7395,0,0,0,0,1,TS01.png,p,,,,,,,,,,,,,,,,,,,,,,,,,,,,,,,,,,,,,,,,,,,,,,,,,,,,,,,,,,,,,,,,,,,,,,
,,,,,,,,,,,,,,274,1,2024-01-22_09h06.41.306,Online_SceneSrcMD_E,2020.2.10,MacIntel,60,,,,,q,0,1.7918,0,1,1,1,1,TS02.png,p,,,,,,,,,,,,,,,,,,,,,,,,,,,,,,,,,,,,,,,,,,,,,,,,,,,,,,,,,,,,,,,,,,,,,,
,,,,,,,,,,,,,,274,1,2024-01-22_09h06.41.306,Online_SceneSrcMD_E,2020.2.10,MacIntel,60,,,,,p,1,2.0657,0,2,2,2,1,TS05.png,p,,,,,,,,,,,,,,,,,,,,,,,,,,,,,,,,,,,,,,,,,,,,,,,,,,,,,,,,,,,,,,,,,,,,,,
,,,,,,,,,,,,,,274,1,2024-01-22_09h06.41.306,Online_SceneSrcMD_E,2020.2.10,MacIntel,60,,,,,q,1,1.9532,0,3,3,3,1,TS06.png,q,,,,,,,,,,,,,,,,,,,,,,,,,,,,,,,,,,,,,,,,,,,,,,,,,,,,,,,,,,,,,,,,,,,,,,
,,,,,,,,,,,,,,274,1,2024-01-22_09h06.41.306,Online_SceneSrcMD_E,2020.2.10,MacIntel,60,,,,,,,,,,,,,,,space,4.7491,0,0,0,0,1,,,,,,,,,,,,,,,,,,,,,,,,,,,,,,,,,,,,,,,,,,,,,,,,,,,,,,,,,,,,,,,
,,,,,,,,,,,,,,274,1,2024-01-22_09h06.41.306,Online_SceneSrcMD_E,2020.2.10,MacIntel,60,,,,,,,,,,,,,,,,,,,,,,0,0,0,0,1,PracticeONE.csv,,,,,,,,,,,,,,,,,,,,,,,,,,,,,,,,,,,,,,,,,,,,,,,,,,,,,,,,,
,,,,,,,,,,,,,,274,1,2024-01-22_09h06.41.306,Online_SceneSrcMD_E,2020.2.10,MacIntel,60,,,,,p,1,2.3949,0,0,0,0,1,TS03.png,p,,,,,,,,,,,,,,,,,,,,,,,,,,,,,,,,,,,,,,,,,,,,,,,,,,,,,,,,,,,,,,,,,,,,,,
,,,,,,,,,,,,,,274,1,2024-01-22_09h06.41.306,Online_SceneSrcMD_E,2020.2.10,MacIntel,60,,,,,q,0,1.4227,0,1,1,1,1,TS04.png,p,,,,,,,,,,,,,,,,,,,,,,,,,,,,,,,,,,,,,,,,,,,,,,,,,,,,,,,,,,,,,,,,,,,,,,
,,,,,,,,,,,,,,274,1,2024-01-22_09h06.41.306,Online_SceneSrcMD_E,2020.2.10,MacIntel,60,,,,,p,1,1.5899,0,2,2,2,1,TS07.png,p,,,,,,,,,,,,,,,,,,,,,,,,,,,,,,,,,,,,,,,,,,,,,,,,,,,,,,,,,,,,,,,,,,,,,,
,,,,,,,,,,,,,,274,1,2024-01-22_09h06.41.306,Online_SceneSrcMD_E,2020.2.10,MacIntel,60,,,,,p,1,0.8919,0,3,3,3,1,TS08.png,p,,,,,,,,,,,,,,,,,,,,,,,,,,,,,,,,,,,,,,,,,,,,,,,,,,,,,,,,,,,,,,,,,,,,,,
,,,,,,,,,,,,,,274,1,2024-01-22_09h06.41.306,Online_SceneSrcMD_E,2020.2.10,MacIntel,60,,,,,,,,,,,,,,,,,,,,,,0,1,1,1,1,PracticeTWO.csv,,,,,,,,,,,,,,,,,,,,,,,,,,,,,,,,,,,,,,,,,,,,,,,,,,,,,,,,,
,,,,,,,,,,,,,,274,1,2024-01-22_09h06.41.306,Online_SceneSrcMD_E,2020.2.10,MacIntel,60,,,,,,,,,,,,,,,,,,,,,,,,,,,,space,1.7386,n,1,1.1792,0,0,0,0,1,2,n,White,,,,,,,,,,,,,,,,,,,,,,,,,,,,,,,,,,,,,,,,,,,,
,,,,,,,,,,,,,,274,1,2024-01-22_09h06.41.306,Online_SceneSrcMD_E,2020.2.10,MacIntel,60,,,,,,,,,,,,,,,,,,,,,,,,,,,,,,n,1,0.6173,0,1,1,1,1,8,n,White,,,,,,,,,,,,,,,,,,,,,,,,,,,,,,,,,,,,,,,,,,,,
,,,,,,,,,,,,,,274,1,2024-01-22_09h06.41.306,Online_SceneSrcMD_E,2020.2.10,MacIntel,60,,,,,,,,,,,,,,,,,,,,,,,,,,,,,,a,1,1.0638,0,2,2,2,1,S,a,White,,,,,,,,,,,,,,,,,,,,,,,,,,,,,,,,,,,,,,,,,,,,
,,,,,,,,,,,,,,274,1,2024-01-22_09h06.41.306,Online_SceneSrcMD_E,2020.2.10,MacIntel,60,,,,,,,,,,,,,,,,,,,,,,,,,,,,,,a,1,0.93,0,3,3,3,1,J,a,White,,,,,,,,,,,,,,,,,,,,,,,,,,,,,,,,,,,,,,,,,,,,
,,,,,,,,,,,,,,274,1,2024-01-22_09h06.41.306,Online_SceneSrcMD_E,2020.2.10,MacIntel,60,,,,,,,,,,,,,,,,,,,,,,,,,,,,,,n,1,0.7157,0,4,4,4,1,6,n,White,,,,,,,,,,,,,,,,,,,,,,,,,,,,,,,,,,,,,,,,,,,,
,,,,,,,,,,,,,,274,1,2024-01-22_09h06.41.306,Online_SceneSrcMD_E,2020.2.10,MacIntel,60,,,,,,,,,,,,,,,,,,,,,,,,,,,,,,,,,,,,,,,,,0,0,0,0,1,Practice_ZeroBlock.csv,Practice Block 1,,,,,,,,,,,,,,,,,,,,,,,,,,,,,,,,,,,,,
,,,,,,,,,,,,,,274,1,2024-01-22_09h06.41.306,Online_SceneSrcMD_E,2020.2.10,MacIntel,60,,,,,,,,,,,,,,,,,,,,,,,,,,,,,,a,1,0.9314,0,0,0,0,1,F,a,White,,,,,,,,,,,,,,,,,,,,,,,,,,,,,,,,,,,,,,,,,,,,
,,,,,,,,,,,,,,274,1,2024-01-22_09h06.41.306,Online_SceneSrcMD_E,2020.2.10,MacIntel,60,,,,,,,,,,,,,,,,,,,,,,,,,,,,,,a,1,0.6172,0,1,1,1,1,H,a,White,,,,,,,,,,,,,,,,,,,,,,,,,,,,,,,,,,,,,,,,,,,,
,,,,,,,,,,,,,,274,1,2024-01-22_09h06.41.306,Online_SceneSrcMD_E,2020.2.10,MacIntel,60,,,,,,,,,,,,,,,,,,,,,,,,,,,,,,a,1,0.807,0,2,2,2,1,X,a,White,,,,,,,,,,,,,,,,,,,,,,,,,,,,,,,,,,,,,,,,,,,,
,,,,,,,,,,,,,,274,1,2024-01-22_09h06.41.306,Online_SceneSrcMD_E,2020.2.10,MacIntel,60,,,,,,,,,,,,,,,,,,,,,,,,,,,,,,n,1,0.679,0,3,3,3,1,5,n,White,,,,,,,,,,,,,,,,,,,,,,,,,,,,,,,,,,,,,,,,,,,,
,,,,,,,,,,,,,,274,1,2024-01-22_09h06.41.306,Online_SceneSrcMD_E,2020.2.10,MacIntel,60,,,,,,,,,,,,,,,,,,,,,,,,,,,,,,n,1,0.8492,0,4,4,4,1,1,n,White,,,,,,,,,,,,,,,,,,,,,,,,,,,,,,,,,,,,,,,,,,,,
,,,,,,,,,,,,,,274,1,2024-01-22_09h06.41.306,Online_SceneSrcMD_E,2020.2.10,MacIntel,60,,,,,,,,,,,,,,,,,,,,,,,,,,,,,,,,,,,,,,,,,0,1,1,1,1,Practice_OneBlock.csv,Practice Block 2,,,,,,,,,,,,,,,,,,,,,,,,,,,,,,,,,,,,,
,,,,,,,,,,,,,,274,1,2024-01-22_09h06.41.306,Online_SceneSrcMD_E,2020.2.10,MacIntel,60,,,,,,,,,,,,,,,,,,,,,,,,,,,,,,n,1,0.8895,0,0,0,0,1,2,n,White,,,,,,,,,,,,,,,,,,,,,,,,,,,,,,,,,,,,,,,,,,,,
,,,,,,,,,,,,,,274,1,2024-01-22_09h06.41.306,Online_SceneSrcMD_E,2020.2.10,MacIntel,60,,,,,,,,,,,,,,,,,,,,,,,,,,,,,,a,1,1.0229,0,1,1,1,1,V,a,White,,,,,,,,,,,,,,,,,,,,,,,,,,,,,,,,,,,,,,,,,,,,
,,,,,,,,,,,,,,274,1,2024-01-22_09h06.41.306,Online_SceneSrcMD_E,2020.2.10,MacIntel,60,,,,,,,,,,,,,,,,,,,,,,,,,,,,,,n,1,0.707,0,2,2,2,1,5,n,White,,,,,,,,,,,,,,,,,,,,,,,,,,,,,,,,,,,,,,,,,,,,
,,,,,,,,,,,,,,274,1,2024-01-22_09h06.41.306,Online_SceneSrcMD_E,2020.2.10,MacIntel,60,,,,,,,,,,,,,,,,,,,,,,,,,,,,,,n,1,0.5925,0,3,3,3,1,2,n,White,,,,,,,,,,,,,,,,,,,,,,,,,,,,,,,,,,,,,,,,,,,,
,,,,,,,,,,,,,,274,1,2024-01-22_09h06.41.306,Online_SceneSrcMD_E,2020.2.10,MacIntel,60,,,,,,,,,,,,,,,,,,,,,,,,,,,,,,a,1,0.7309,0,4,4,4,1,F,a,White,,,,,,,,,,,,,,,,,,,,,,,,,,,,,,,,,,,,,,,,,,,,
,,,,,,,,,,,,,,274,1,2024-01-22_09h06.41.306,Online_SceneSrcMD_E,2020.2.10,MacIntel,60,,,,,,,,,,,,,,,,,,,,,,,,,,,,,,,,,,,,,,,,,0,2,2,2,1,Practice_TwoBlock.csv,Practice Block 3,,,,,,,,,,,,,,,,,,,,,,,,,,,,,,,,,,,,,
,,,,,,,,,,,,,,274,1,2024-01-22_09h06.41.306,Online_SceneSrcMD_E,2020.2.10,MacIntel,60,,,space,4.4141,p,1,0.9986,,,,,,N2-9913comp.png,p,,,,,,,,,,,,,,,,,,,,,,,,,,,,,,,,,,0,0,0,0,1,,,,,,,,,,,,,,,,,,,,,,,,,,,,,,,,
,,,,,,,,,,,,,,274,1,2024-01-22_09h06.41.306,Online_SceneSrcMD_E,2020.2.10,MacIntel,60,,,,,q,1,1.4827,,,,,,E2-9921comp.png,q,,,,,,,,,,,,,,,,,,,,,,,,,,,,,,,,,,0,1,1,1,1,,,,,,,,,,,,,,,,,,,,,,,,,,,,,,,,
,,,,,,,,,,,,,,274,1,2024-01-22_09h06.41.306,Online_SceneSrcMD_E,2020.2.10,MacIntel,60,,,,,p,1,1.0717,,,,,,N2-8160comp.png,p,,,,,,,,,,,,,,,,,,,,,,,,,,,,,,,,,,0,2,2,2,1,,,,,,,,,,,,,,,,,,,,,,,,,,,,,,,,
,,,,,,,,,,,,,,274,1,2024-01-22_09h06.41.306,Online_SceneSrcMD_E,2020.2.10,MacIntel,60,,,,,q,0,1.8074,,,,,,E2-6415comp.png,p,,,,,,,,,,,,,,,,,,,,,,,,,,,,,,,,,,0,3,3,3,1,,,,,,,,,,,,,,,,,,,,,,,,,,,,,,,,
,,,,,,,,,,,,,,274,1,2024-01-22_09h06.41.306,Online_SceneSrcMD_E,2020.2.10,MacIntel,60,,,,,p,1,1.4243,,,,,,N2-5395comp.png,p,,,,,,,,,,,,,,,,,,,,,,,,,,,,,,,,,,0,4,4,4,1,,,,,,,,,,,,,,,,,,,,,,,,,,,,,,,,
,,,,,,,,,,,,,,274,1,2024-01-22_09h06.41.306,Online_SceneSrcMD_E,2020.2.10,MacIntel,60,,,,,p,1,2.1608,,,,,,E2-3350comp.png,p,,,,,,,,,,,,,,,,,,,,,,,,,,,,,,,,,,0,5,5,5,1,,,,,,,,,,,,,,,,,,,,,,,,,,,,,,,,
,,,,,,,,,,,,,,274,1,2024-01-22_09h06.41.306,Online_SceneSrcMD_E,2020.2.10,MacIntel,60,,,,,q,1,1.9946,,,,,,N2-1600comp.png,q,,,,,,,,,,,,,,,,,,,,,,,,,,,,,,,,,,0,6,6,6,1,,,,,,,,,,,,,,,,,,,,,,,,,,,,,,,,
,,,,,,,,,,,,,,274,1,2024-01-22_09h06.41.306,Online_SceneSrcMD_E,2020.2.10,MacIntel,60,,,,,p,0,1.9406,,,,,,N2-7550comp.png,q,,,,,,,,,,,,,,,,,,,,,,,,,,,,,,,,,,0,7,7,7,1,,,,,,,,,,,,,,,,,,,,,,,,,,,,,,,,
,,,,,,,,,,,,,,274,1,2024-01-22_09h06.41.306,Online_SceneSrcMD_E,2020.2.10,MacIntel,60,,,,,q,1,2.2258,,,,,,E2-6243comp.png,q,,,,,,,,,,,,,,,,,,,,,,,,,,,,,,,,,,0,8,8,8,1,,,,,,,,,,,,,,,,,,,,,,,,,,,,,,,,
,,,,,,,,,,,,,,274,1,2024-01-22_09h06.41.306,Online_SceneSrcMD_E,2020.2.10,MacIntel,60,,,,,p,1,1.9377,,,,,,N2-2840comp.png,p,,,,,,,,,,,,,,,,,,,,,,,,,,,,,,,,,,0,9,9,9,1,,,,,,,,,,,,,,,,,,,,,,,,,,,,,,,,
,,,,,,,,,,,,,,274,1,2024-01-22_09h06.41.306,Online_SceneSrcMD_E,2020.2.10,MacIntel,60,,,,,p,1,2.0451,,,,,,E2-2716comp.png,p,,,,,,,,,,,,,,,,,,,,,,,,,,,,,,,,,,0,10,10,10,1,,,,,,,,,,,,,,,,,,,,,,,,,,,,,,,,
,,,,,,,,,,,,,,274,1,2024-01-22_09h06.41.306,Online_SceneSrcMD_E,2020.2.10,MacIntel,60,,,,,,0,,,,,,,N2-6570_2comp.png,q,,,,,,,,,,,,,,,,,,,,,,,,,,,,,,,,,,0,11,11,11,1,,,,,,,,,,,,,,,,,,,,,,,,,,,,,,,,
,,,,,,,,,,,,,,274,1,2024-01-22_09h06.41.306,Online_SceneSrcMD_E,2020.2.10,MacIntel,60,,,,,q,1,1.5237,,,,,,E2-2900_1comp.png,q,,,,,,,,,,,,,,,,,,,,,,,,,,,,,,,,,,0,12,12,12,1,,,,,,,,,,,,,,,,,,,,,,,,,,,,,,,,
,,,,,,,,,,,,,,274,1,2024-01-22_09h06.41.306,Online_SceneSrcMD_E,2020.2.10,MacIntel,60,,,,,p,0,2.4429,,,,,,N2-2594comp.png,q,,,,,,,,,,,,,,,,,,,,,,,,,,,,,,,,,,0,13,13,13,1,,,,,,,,,,,,,,,,,,,,,,,,,,,,,,,,
,,,,,,,,,,,,,,274,1,2024-01-22_09h06.41.306,Online_SceneSrcMD_E,2020.2.10,MacIntel,60,,,,,p,1,1.571,,,,,,E2-9420comp.png,p,,,,,,,,,,,,,,,,,,,,,,,,,,,,,,,,,,0,14,14,14,1,,,,,,,,,,,,,,,,,,,,,,,,,,,,,,,,
,,,,,,,,,,,,,,274,1,2024-01-22_09h06.41.306,Online_SceneSrcMD_E,2020.2.10,MacIntel,60,,,,,p,1,1.0537,,,,,,N2-5779comp.png,p,,,,,,,,,,,,,,,,,,,,,,,,,,,,,,,,,,0,15,15,15,1,,,,,,,,,,,,,,,,,,,,,,,,,,,,,,,,
,,,,,,,,,,,,,,274,1,2024-01-22_09h06.41.306,Online_SceneSrcMD_E,2020.2.10,MacIntel,60,,,,,p,1,2.6264,,,,,,E2-1932comp.png,p,,,,,,,,,,,,,,,,,,,,,,,,,,,,,,,,,,0,16,16,16,1,,,,,,,,,,,,,,,,,,,,,,,,,,,,,,,,
,,,,,,,,,,,,,,274,1,2024-01-22_09h06.41.306,Online_SceneSrcMD_E,2020.2.10,MacIntel,60,,,,,p,0,1.8225,,,,,,E2-9582comp.png,q,,,,,,,,,,,,,,,,,,,,,,,,,,,,,,,,,,0,17,17,17,1,,,,,,,,,,,,,,,,,,,,,,,,,,,,,,,,
,,,,,,,,,,,,,,274,1,2024-01-22_09h06.41.306,Online_SceneSrcMD_E,2020.2.10,MacIntel,60,,,,,p,0,2.6848,,,,,,N2-2620comp.png,q,,,,,,,,,,,,,,,,,,,,,,,,,,,,,,,,,,0,18,18,18,1,,,,,,,,,,,,,,,,,,,,,,,,,,,,,,,,
,,,,,,,,,,,,,,274,1,2024-01-22_09h06.41.306,Online_SceneSrcMD_E,2020.2.10,MacIntel,60,,,,,q,1,1.4252,,,,,,E2-7380comp.png,q,,,,,,,,,,,,,,,,,,,,,,,,,,,,,,,,,,0,19,19,19,1,,,,,,,,,,,,,,,,,,,,,,,,,,,,,,,,
,,,,,,,,,,,,,,274,1,2024-01-22_09h06.41.306,Online_SceneSrcMD_E,2020.2.10,MacIntel,60,,,,,,,,,,,,,,,,,,,,,,,,,,,,,,,,,,,,,,,,,,,,,,,,,,,,,"[""1"",""3"",""4"",""5""]","[9.167800000011766,11.219700000047624,12.386100000023816,14.260700000047564]",space,4.2678,0,0,0,0,1,Attn_Colored.png,,,,,,,,,,,,,,,,,,,,,,
,,,,,,,,,,,,,,274,1,2024-01-22_09h06.41.306,Online_SceneSrcMD_E,2020.2.10,MacIntel,60,,,,,,,,,,,,,,,,,,,,,,,,,,,,,,,,,,,,,,,,,,,,,,,,,,,,,,,,,,,,,,,0,0,0,0,1,BlockFour.csv,ColorCheck.csv,,,,,,,,,,,,,,,
,,,,,,,,,,,,,,274,1,2024-01-22_09h06.41.306,Online_SceneSrcMD_E,2020.2.10,MacIntel,60,,,,,p,1,1.9575,,,,,,N2-1661comp.png,p,,,,,,,,,,,,,,,,,,,,,,,,,,,,,,,,,,0,0,0,0,1,,,,,,,,,,,,,,,,,,,,,,,,,,,,,,,,
,,,,,,,,,,,,,,274,1,2024-01-22_09h06.41.306,Online_SceneSrcMD_E,2020.2.10,MacIntel,60,,,,,p,1,2.1952,,,,,,E2-9340comp.png,p,,,,,,,,,,,,,,,,,,,,,,,,,,,,,,,,,,0,1,1,1,1,,,,,,,,,,,,,,,,,,,,,,,,,,,,,,,,
,,,,,,,,,,,,,,274,1,2024-01-22_09h06.41.306,Online_SceneSrcMD_E,2020.2.10,MacIntel,60,,,,,q,0,1.8756,,,,,,N2-2512comp.png,p,,,,,,,,,,,,,,,,,,,,,,,,,,,,,,,,,,0,2,2,2,1,,,,,,,,,,,,,,,,,,,,,,,,,,,,,,,,
,,,,,,,,,,,,,,274,1,2024-01-22_09h06.41.306,Online_SceneSrcMD_E,2020.2.10,MacIntel,60,,,,,q,1,1.8599,,,,,,E2-3261comp.png,q,,,,,,,,,,,,,,,,,,,,,,,,,,,,,,,,,,0,3,3,3,1,,,,,,,,,,,,,,,,,,,,,,,,,,,,,,,,
,,,,,,,,,,,,,,274,1,2024-01-22_09h06.41.306,Online_SceneSrcMD_E,2020.2.10,MacIntel,60,,,,,q,1,1.9329,,,,,,N2-2270comp.png,q,,,,,,,,,,,,,,,,,,,,,,,,,,,,,,,,,,0,4,4,4,1,,,,,,,,,,,,,,,,,,,,,,,,,,,,,,,,
,,,,,,,,,,,,,,274,1,2024-01-22_09h06.41.306,Online_SceneSrcMD_E,2020.2.10,MacIntel,60,,,,,,0,,,,,,,E2-9040comp.png,p,,,,,,,,,,,,,,,,,,,,,,,,,,,,,,,,,,0,5,5,5,1,,,,,,,,,,,,,,,,,,,,,,,,,,,,,,,,
,,,,,,,,,,,,,,274,1,2024-01-22_09h06.41.306,Online_SceneSrcMD_E,2020.2.10,MacIntel,60,,,,,p,1,0.8764,,,,,,N2-4603comp.png,p,,,,,,,,,,,,,,,,,,,,,,,,,,,,,,,,,,0,6,6,6,1,,,,,,,,,,,,,,,,,,,,,,,,,,,,,,,,
,,,,,,,,,,,,,,274,1,2024-01-22_09h06.41.306,Online_SceneSrcMD_E,2020.2.10,MacIntel,60,,,,,q,1,1.7952,,,,,,E2-9140comp.png,q,,,,,,,,,,,,,,,,,,,,,,,,,,,,,,,,,,0,7,7,7,1,,,,,,,,,,,,,,,,,,,,,,,,,,,,,,,,
,,,,,,,,,,,,,,274,1,2024-01-22_09h06.41.306,Online_SceneSrcMD_E,2020.2.10,MacIntel,60,,,,,p,1,2.0738,,,,,,E2-9410comp.png,p,,,,,,,,,,,,,,,,,,,,,,,,,,,,,,,,,,0,8,8,8,1,,,,,,,,,,,,,,,,,,,,,,,,,,,,,,,,
,,,,,,,,,,,,,,274,1,2024-01-22_09h06.41.306,Online_SceneSrcMD_E,2020.2.10,MacIntel,60,,,,,q,1,1.5782,,,,,,N2-5875comp.png,q,,,,,,,,,,,,,,,,,,,,,,,,,,,,,,,,,,0,9,9,9,1,,,,,,,,,,,,,,,,,,,,,,,,,,,,,,,,
,,,,,,,,,,,,,,274,1,2024-01-22_09h06.41.306,Online_SceneSrcMD_E,2020.2.10,MacIntel,60,,,,,q,1,1.5142,,,,,,N2-8465comp.png,q,,,,,,,,,,,,,,,,,,,,,,,,,,,,,,,,,,0,10,10,10,1,,,,,,,,,,,,,,,,,,,,,,,,,,,,,,,,
,,,,,,,,,,,,,,274,1,2024-01-22_09h06.41.306,Online_SceneSrcMD_E,2020.2.10,MacIntel,60,,,,,p,1,3.7066,,,,,,E2-9424comp.png,p,,,,,,,,,,,,,,,,,,,,,,,,,,,,,,,,,,0,11,11,11,1,,,,,,,,,,,,,,,,,,,,,,,,,,,,,,,,
,,,,,,,,,,,,,,274,1,2024-01-22_09h06.41.306,Online_SceneSrcMD_E,2020.2.10,MacIntel,60,,,,,p,1,3.7247,,,,,,N2-1910comp.png,p,,,,,,,,,,,,,,,,,,,,,,,,,,,,,,,,,,0,12,12,12,1,,,,,,,,,,,,,,,,,,,,,,,,,,,,,,,,
,,,,,,,,,,,,,,274,1,2024-01-22_09h06.41.306,Online_SceneSrcMD_E,2020.2.10,MacIntel,60,,,,,p,0,3.3705,,,,,,E2-9500comp.png,q,,,,,,,,,,,,,,,,,,,,,,,,,,,,,,,,,,0,13,13,13,1,,,,,,,,,,,,,,,,,,,,,,,,,,,,,,,,
,,,,,,,,,,,,,,274,1,2024-01-22_09h06.41.306,Online_SceneSrcMD_E,2020.2.10,MacIntel,60,,,,,q,1,2.1399,,,,,,E2-6540comp.png,q,,,,,,,,,,,,,,,,,,,,,,,,,,,,,,,,,,0,14,14,14,1,,,,,,,,,,,,,,,,,,,,,,,,,,,,,,,,
,,,,,,,,,,,,,,274,1,2024-01-22_09h06.41.306,Online_SceneSrcMD_E,2020.2.10,MacIntel,60,,,,,q,1,1.8231,,,,,,N2-2616comp.png,q,,,,,,,,,,,,,,,,,,,,,,,,,,,,,,,,,,0,15,15,15,1,,,,,,,,,,,,,,,,,,,,,,,,,,,,,,,,
,,,,,,,,,,,,,,274,1,2024-01-22_09h06.41.306,Online_SceneSrcMD_E,2020.2.10,MacIntel,60,,,,,q,1,2.6428,,,,,,N2-2221comp.png,q,,,,,,,,,,,,,,,,,,,,,,,,,,,,,,,,,,0,16,16,16,1,,,,,,,,,,,,,,,,,,,,,,,,,,,,,,,,
,,,,,,,,,,,,,,274,1,2024-01-22_09h06.41.306,Online_SceneSrcMD_E,2020.2.10,MacIntel,60,,,,,q,1,2.6571,,,,,,E2-8230comp.png,q,,,,,,,,,,,,,,,,,,,,,,,,,,,,,,,,,,0,17,17,17,1,,,,,,,,,,,,,,,,,,,,,,,,,,,,,,,,
,,,,,,,,,,,,,,274,1,2024-01-22_09h06.41.306,Online_SceneSrcMD_E,2020.2.10,MacIntel,60,,,,,p,0,2.6401,,,,,,N2-2499comp.png,q,,,,,,,,,,,,,,,,,,,,,,,,,,,,,,,,,,0,18,18,18,1,,,,,,,,,,,,,,,,,,,,,,,,,,,,,,,,
,,,,,,,,,,,,,,274,1,2024-01-22_09h06.41.306,Online_SceneSrcMD_E,2020.2.10,MacIntel,60,,,,,q,1,2.3954,,,,,,E2-9622comp.png,q,,,,,,,,,,,,,,,,,,,,,,,,,,,,,,,,,,0,19,19,19,1,,,,,,,,,,,,,,,,,,,,,,,,,,,,,,,,
,,,,,,,,,,,,,,274,1,2024-01-22_09h06.41.306,Online_SceneSrcMD_E,2020.2.10,MacIntel,60,,,,,,,,,,,,,,,,,,,,,,,,,,,,,,,,,,,,,,,,,,,,,,,,,,,,,,,space,2.7871,,,,,,,,,,,,,,0,0,0,0,1,,,,,,,,,,
,,,,,,,,,,,,,,274,1,2024-01-22_09h06.41.306,Online_SceneSrcMD_E,2020.2.10,MacIntel,60,,,,,,,,,,,,,,,,,,,,,,,,,,,,,,,,,,,,,,,,,,,,,,,,,,,,,,,,,,,,,,,0,1,1,1,1,BlockFive.csv,ColorCheck.csv,,,,,,,,,,,,,,,
,,,,,,,,,,,,,,274,1,2024-01-22_09h06.41.306,Online_SceneSrcMD_E,2020.2.10,MacIntel,60,,,,,p,1,1.5236,,,,,,E2-9230comp.png,p,,,,,,,,,,,,,,,,,,,,,,,,,,,,,,,,,,0,0,0,0,1,,,,,,,,,,,,,,,,,,,,,,,,,,,,,,,,
,,,,,,,,,,,,,,274,1,2024-01-22_09h06.41.306,Online_SceneSrcMD_E,2020.2.10,MacIntel,60,,,,,p,1,1.3074,,,,,,N2-2235comp.png,p,,,,,,,,,,,,,,,,,,,,,,,,,,,,,,,,,,0,1,1,1,1,,,,,,,,,,,,,,,,,,,,,,,,,,,,,,,,
,,,,,,,,,,,,,,274,1,2024-01-22_09h06.41.306,Online_SceneSrcMD_E,2020.2.10,MacIntel,60,,,,,p,1,1.748,,,,,,N2-8280comp.png,p,,,,,,,,,,,,,,,,,,,,,,,,,,,,,,,,,,0,2,2,2,1,,,,,,,,,,,,,,,,,,,,,,,,,,,,,,,,
,,,,,,,,,,,,,,274,1,2024-01-22_09h06.41.306,Online_SceneSrcMD_E,2020.2.10,MacIntel,60,,,,,p,1,2.5252,,,,,,E2-3266comp.png,p,,,,,,,,,,,,,,,,,,,,,,,,,,,,,,,,,,0,3,3,3,1,,,,,,,,,,,,,,,,,,,,,,,,,,,,,,,,
,,,,,,,,,,,,,,274,1,2024-01-22_09h06.41.306,Online_SceneSrcMD_E,2020.2.10,MacIntel,60,,,,,q,0,3.7716,,,,,,N2-7560comp.png,p,,,,,,,,,,,,,,,,,,,,,,,,,,,,,,,,,,0,4,4,4,1,,,,,,,,,,,,,,,,,,,,,,,,,,,,,,,,
,,,,,,,,,,,,,,274,1,2024-01-22_09h06.41.306,Online_SceneSrcMD_E,2020.2.10,MacIntel,60,,,,,p,1,3.8434,,,,,,E2-9920comp.png,p,,,,,,,,,,,,,,,,,,,,,,,,,,,,,,,,,,0,5,5,5,1,,,,,,,,,,,,,,,,,,,,,,,,,,,,,,,,
,,,,,,,,,,,,,,274,1,2024-01-22_09h06.41.306,Online_SceneSrcMD_E,2020.2.10,MacIntel,60,,,,,p,1,2.5543,,,,,,N2-2579comp.png,p,,,,,,,,,,,,,,,,,,,,,,,,,,,,,,,,,,0,6,6,6,1,,,,,,,,,,,,,,,,,,,,,,,,,,,,,,,,
,,,,,,,,,,,,,,274,1,2024-01-22_09h06.41.306,Online_SceneSrcMD_E,2020.2.10,MacIntel,60,,,,,p,1,1.1793,,,,,,N2-7491comp.png,p,,,,,,,,,,,,,,,,,,,,,,,,,,,,,,,,,,0,7,7,7,1,,,,,,,,,,,,,,,,,,,,,,,,,,,,,,,,
,,,,,,,,,,,,,,274,1,2024-01-22_09h06.41.306,Online_SceneSrcMD_E,2020.2.10,MacIntel,60,,,,,q,1,2.6432,,,,,,E2-3230comp.png,q,,,,,,,,,,,,,,,,,,,,,,,,,,,,,,,,,,0,8,8,8,1,,,,,,,,,,,,,,,,,,,,,,,,,,,,,,,,
,,,,,,,,,,,,,,274,1,2024-01-22_09h06.41.306,Online_SceneSrcMD_E,2020.2.10,MacIntel,60,,,,,p,1,2.1633,,,,,,E2-2683comp.png,p,,,,,,,,,,,,,,,,,,,,,,,,,,,,,,,,,,0,9,9,9,1,,,,,,,,,,,,,,,,,,,,,,,,,,,,,,,,
,,,,,,,,,,,,,,274,1,2024-01-22_09h06.41.306,Online_SceneSrcMD_E,2020.2.10,MacIntel,60,,,,,p,1,1.0711,,,,,,N2-7600comp.png,p,,,,,,,,,,,,,,,,,,,,,,,,,,,,,,,,,,0,10,10,10,1,,,,,,,,,,,,,,,,,,,,,,,,,,,,,,,,
,,,,,,,,,,,,,,274,1,2024-01-22_09h06.41.306,Online_SceneSrcMD_E,2020.2.10,MacIntel,60,,,,,q,1,2.074,,,,,,E2-3400comp.png,q,,,,,,,,,,,,,,,,,,,,,,,,,,,,,,,,,,0,11,11,11,1,,,,,,,,,,,,,,,,,,,,,,,,,,,,,,,,
,,,,,,,,,,,,,,274,1,2024-01-22_09h06.41.306,Online_SceneSrcMD_E,2020.2.10,MacIntel,60,,,,,q,0,2.8273,,,,,,E2-9265comp.png,p,,,,,,,,,,,,,,,,,,,,,,,,,,,,,,,,,,0,12,12,12,1,,,,,,,,,,,,,,,,,,,,,,,,,,,,,,,,
,,,,,,,,,,,,,,274,1,2024-01-22_09h06.41.306,Online_SceneSrcMD_E,2020.2.10,MacIntel,60,,,,,p,1,1.7071,,,,,,N2-2518comp.png,p,,,,,,,,,,,,,,,,,,,,,,,,,,,,,,,,,,0,13,13,13,1,,,,,,,,,,,,,,,,,,,,,,,,,,,,,,,,
,,,,,,,,,,,,,,274,1,2024-01-22_09h06.41.306,Online_SceneSrcMD_E,2020.2.10,MacIntel,60,,,,,q,1,2.6892,,,,,,E2-3069comp.png,q,,,,,,,,,,,,,,,,,,,,,,,,,,,,,,,,,,0,14,14,14,1,,,,,,,,,,,,,,,,,,,,,,,,,,,,,,,,
,,,,,,,,,,,,,,274,1,2024-01-22_09h06.41.306,Online_SceneSrcMD_E,2020.2.10,MacIntel,60,,,,,q,0,2.9821,,,,,,N2-2200comp.png,p,,,,,,,,,,,,,,,,,,,,,,,,,,,,,,,,,,0,15,15,15,1,,,,,,,,,,,,,,,,,,,,,,,,,,,,,,,,
,,,,,,,,,,,,,,274,1,2024-01-22_09h06.41.306,Online_SceneSrcMD_E,2020.2.10,MacIntel,60,,,,,q,0,2.0418,,,,,,N2-7546comp.png,p,,,,,,,,,,,,,,,,,,,,,,,,,,,,,,,,,,0,16,16,16,1,,,,,,,,,,,,,,,,,,,,,,,,,,,,,,,,
,,,,,,,,,,,,,,274,1,2024-01-22_09h06.41.306,Online_SceneSrcMD_E,2020.2.10,MacIntel,60,,,,,q,1,2.9724,,,,,,E2-3500comp.png,q,,,,,,,,,,,,,,,,,,,,,,,,,,,,,,,,,,0,17,17,17,1,,,,,,,,,,,,,,,,,,,,,,,,,,,,,,,,
,,,,,,,,,,,,,,274,1,2024-01-22_09h06.41.306,Online_SceneSrcMD_E,2020.2.10,MacIntel,60,,,,,q,1,2.8731,,,,,,E2-3170comp.png,q,,,,,,,,,,,,,,,,,,,,,,,,,,,,,,,,,,0,18,18,18,1,,,,,,,,,,,,,,,,,,,,,,,,,,,,,,,,
,,,,,,,,,,,,,,274,1,2024-01-22_09h06.41.306,Online_SceneSrcMD_E,2020.2.10,MacIntel,60,,,,,p,1,2.6128,,,,,,N2-2606comp.png,p,,,,,,,,,,,,,,,,,,,,,,,,,,,,,,,,,,0,19,19,19,1,,,,,,,,,,,,,,,,,,,,,,,,,,,,,,,,
,,,,,,,,,,,,,,274,1,2024-01-22_09h06.41.306,Online_SceneSrcMD_E,2020.2.10,MacIntel,60,,,,,,,,,,,,,,,,,,,,,,,,,,,,,,,,,,,,,,,,,,,,,,,,,,,,,,,space,1.2152,,,,,,,,,,,,,,0,0,0,0,1,,,,,,,,,,
,,,,,,,,,,,,,,274,1,2024-01-22_09h06.41.306,Online_SceneSrcMD_E,2020.2.10,MacIntel,60,,,,,,,,,,,,,,,,,,,,,,,,,,,,,,,,,,,,,,,,,,,,,,,,,,,,,,,,,,,,,,,0,2,2,2,1,BlockSix.csv,ColorCheck.csv,,,,,,,,,,,,,,,
,,,,,,,,,,,,,,274,1,2024-01-22_09h06.41.306,Online_SceneSrcMD_E,2020.2.10,MacIntel,60,,,,,,,,,,,,,,,,,,,,,,,,,,,,space,3.1628,a,1,0.8658,,,,,,E,a,White,,,,,,,,,,,,,,,,,,,,,,,,,,,,,,,,,,,0,0,0,0,1,,,,,
,,,,,,,,,,,,,,274,1,2024-01-22_09h06.41.306,Online_SceneSrcMD_E,2020.2.10,MacIntel,60,,,,,,,,,,,,,,,,,,,,,,,,,,,,,,n,1,0.4708,,,,,,1,n,White,,,,,,,,,,,,,,,,,,,,,,,,,,,,,,,,,,,0,1,1,1,1,,,,,
,,,,,,,,,,,,,,274,1,2024-01-22_09h06.41.306,Online_SceneSrcMD_E,2020.2.10,MacIntel,60,,,,,,,,,,,,,,,,,,,,,,,,,,,,,,n,1,0.9648,,,,,,6,n,White,,,,,,,,,,,,,,,,,,,,,,,,,,,,,,,,,,,0,2,2,2,1,,,,,
,,,,,,,,,,,,,,274,1,2024-01-22_09h06.41.306,Online_SceneSrcMD_E,2020.2.10,MacIntel,60,,,,,,,,,,,,,,,,,,,,,,,,,,,,,,a,1,1.164,,,,,,O,a,White,,,,,,,,,,,,,,,,,,,,,,,,,,,,,,,,,,,0,3,3,3,1,,,,,
,,,,,,,,,,,,,,274,1,2024-01-22_09h06.41.306,Online_SceneSrcMD_E,2020.2.10,MacIntel,60,,,,,,,,,,,,,,,,,,,,,,,,,,,,,,n,1,0.4654,,,,,,5,n,White,,,,,,,,,,,,,,,,,,,,,,,,,,,,,,,,,,,0,4,4,4,1,,,,,
,,,,,,,,,,,,,,274,1,2024-01-22_09h06.41.306,Online_SceneSrcMD_E,2020.2.10,MacIntel,60,,,,,,,,,,,,,,,,,,,,,,,,,,,,,,n,1,0.5926,,,,,,7,n,White,,,,,,,,,,,,,,,,,,,,,,,,,,,,,,,,,,,0,5,5,5,1,,,,,
,,,,,,,,,,,,,,274,1,2024-01-22_09h06.41.306,Online_SceneSrcMD_E,2020.2.10,MacIntel,60,,,,,,,,,,,,,,,,,,,,,,,,,,,,,,n,1,0.8172,,,,,,8,n,White,,,,,,,,,,,,,,,,,,,,,,,,,,,,,,,,,,,0,6,6,6,1,,,,,
,,,,,,,,,,,,,,274,1,2024-01-22_09h06.41.306,Online_SceneSrcMD_E,2020.2.10,MacIntel,60,,,,,,,,,,,,,,,,,,,,,,,,,,,,,,n,1,0.7476,,,,,,6,n,White,,,,,,,,,,,,,,,,,,,,,,,,,,,,,,,,,,,0,7,7,7,1,,,,,
,,,,,,,,,,,,,,274,1,2024-01-22_09h06.41.306,Online_SceneSrcMD_E,2020.2.10,MacIntel,60,,,,,,,,,,,,,,,,,,,,,,,,,,,,,,a,1,0.9147,,,,,,Z,a,White,,,,,,,,,,,,,,,,,,,,,,,,,,,,,,,,,,,0,8,8,8,1,,,,,
,,,,,,,,,,,,,,274,1,2024-01-22_09h06.41.306,Online_SceneSrcMD_E,2020.2.10,MacIntel,60,,,,,,,,,,,,,,,,,,,,,,,,,,,,,,a,1,0.9825,,,,,,B,a,White,,,,,,,,,,,,,,,,,,,,,,,,,,,,,,,,,,,0,9,9,9,1,,,,,
,,,,,,,,,,,,,,274,1,2024-01-22_09h06.41.306,Online_SceneSrcMD_E,2020.2.10,MacIntel,60,,,,,,,,,,,,,,,,,,,,,,,,,,,,,,n,1,0.8977,,,,,,5,n,White,,,,,,,,,,,,,,,,,,,,,,,,,,,,,,,,,,,0,10,10,10,1,,,,,
,,,,,,,,,,,,,,274,1,2024-01-22_09h06.41.306,Online_SceneSrcMD_E,2020.2.10,MacIntel,60,,,,,,,,,,,,,,,,,,,,,,,,,,,,,,a,1,1.1658,,,,,,G,a,White,,,,,,,,,,,,,,,,,,,,,,,,,,,,,,,,,,,0,11,11,11,1,,,,,
,,,,,,,,,,,,,,274,1,2024-01-22_09h06.41.306,Online_SceneSrcMD_E,2020.2.10,MacIntel,60,,,,,,,,,,,,,,,,,,,,,,,,,,,,,,n,1,1.0503,,,,,,5,n,White,,,,,,,,,,,,,,,,,,,,,,,,,,,,,,,,,,,0,12,12,12,1,,,,,
,,,,,,,,,,,,,,274,1,2024-01-22_09h06.41.306,Online_SceneSrcMD_E,2020.2.10,MacIntel,60,,,,,,,,,,,,,,,,,,,,,,,,,,,,,,a,1,1.623,,,,,,D,a,White,,,,,,,,,,,,,,,,,,,,,,,,,,,,,,,,,,,0,13,13,13,1,,,,,
,,,,,,,,,,,,,,274,1,2024-01-22_09h06.41.306,Online_SceneSrcMD_E,2020.2.10,MacIntel,60,,,,,,,,,,,,,,,,,,,,,,,,,,,,,,a,1,1.0483,,,,,,P,a,White,,,,,,,,,,,,,,,,,,,,,,,,,,,,,,,,,,,0,14,14,14,1,,,,,
,,,,,,,,,,,,,,274,1,2024-01-22_09h06.41.306,Online_SceneSrcMD_E,2020.2.10,MacIntel,60,,,,,,,,,,,,,,,,,,,,,,,,,,,,,,n,1,0.9657,,,,,,2,n,White,,,,,,,,,,,,,,,,,,,,,,,,,,,,,,,,,,,0,15,15,15,1,,,,,
,,,,,,,,,,,,,,274,1,2024-01-22_09h06.41.306,Online_SceneSrcMD_E,2020.2.10,MacIntel,60,,,,,,,,,,,,,,,,,,,,,,,,,,,,,,n,1,0.6501,,,,,,7,n,White,,,,,,,,,,,,,,,,,,,,,,,,,,,,,,,,,,,0,16,16,16,1,,,,,
,,,,,,,,,,,,,,274,1,2024-01-22_09h06.41.306,Online_SceneSrcMD_E,2020.2.10,MacIntel,60,,,,,,,,,,,,,,,,,,,,,,,,,,,,,,n,1,0.6653,,,,,,7,n,White,,,,,,,,,,,,,,,,,,,,,,,,,,,,,,,,,,,0,17,17,17,1,,,,,
,,,,,,,,,,,,,,274,1,2024-01-22_09h06.41.306,Online_SceneSrcMD_E,2020.2.10,MacIntel,60,,,,,,,,,,,,,,,,,,,,,,,,,,,,,,a,1,1.3971,,,,,,K,a,White,,,,,,,,,,,,,,,,,,,,,,,,,,,,,,,,,,,0,18,18,18,1,,,,,
,,,,,,,,,,,,,,274,1,2024-01-22_09h06.41.306,Online_SceneSrcMD_E,2020.2.10,MacIntel,60,,,,,,,,,,,,,,,,,,,,,,,,,,,,,,a,1,1.1804,,,,,,D,a,White,,,,,,,,,,,,,,,,,,,,,,,,,,,,,,,,,,,0,19,19,19,1,,,,,
,,,,,,,,,,,,,,274,1,2024-01-22_09h06.41.306,Online_SceneSrcMD_E,2020.2.10,MacIntel,60,,,,,,,,,,,,,,,,,,,,,,,,,,,,,,a,1,1.7068,,,,,,I,a,White,,,,,,,,,,,,,,,,,,,,,,,,,,,,,,,,,,,0,20,20,20,1,,,,,
,,,,,,,,,,,,,,274,1,2024-01-22_09h06.41.306,Online_SceneSrcMD_E,2020.2.10,MacIntel,60,,,,,,,,,,,,,,,,,,,,,,,,,,,,,,n,1,1.0492,,,,,,7,n,White,,,,,,,,,,,,,,,,,,,,,,,,,,,,,,,,,,,0,21,21,21,1,,,,,
,,,,,,,,,,,,,,274,1,2024-01-22_09h06.41.306,Online_SceneSrcMD_E,2020.2.10,MacIntel,60,,,,,,,,,,,,,,,,,,,,,,,,,,,,,,a,1,0.9549,,,,,,R,a,White,,,,,,,,,,,,,,,,,,,,,,,,,,,,,,,,,,,0,22,22,22,1,,,,,
,,,,,,,,,,,,,,274,1,2024-01-22_09h06.41.306,Online_SceneSrcMD_E,2020.2.10,MacIntel,60,,,,,,,,,,,,,,,,,,,,,,,,,,,,,,a,1,0.7496,,,,,,E,a,White,,,,,,,,,,,,,,,,,,,,,,,,,,,,,,,,,,,0,23,23,23,1,,,,,
,,,,,,,,,,,,,,274,1,2024-01-22_09h06.41.306,Online_SceneSrcMD_E,2020.2.10,MacIntel,60,,,,,,,,,,,,,,,,,,,,,,,,,,,,,,n,1,0.5502,,,,,,8,n,White,,,,,,,,,,,,,,,,,,,,,,,,,,,,,,,,,,,0,24,24,24,1,,,,,
,,,,,,,,,,,,,,274,1,2024-01-22_09h06.41.306,Online_SceneSrcMD_E,2020.2.10,MacIntel,60,,,,,,,,,,,,,,,,,,,,,,,,,,,,,,a,1,0.8147,,,,,,T,a,White,,,,,,,,,,,,,,,,,,,,,,,,,,,,,,,,,,,0,25,25,25,1,,,,,
,,,,,,,,,,,,,,274,1,2024-01-22_09h06.41.306,Online_SceneSrcMD_E,2020.2.10,MacIntel,60,,,,,,,,,,,,,,,,,,,,,,,,,,,,,,n,1,1.0748,,,,,,0,n,White,,,,,,,,,,,,,,,,,,,,,,,,,,,,,,,,,,,0,26,26,26,1,,,,,
,,,,,,,,,,,,,,274,1,2024-01-22_09h06.41.306,Online_SceneSrcMD_E,2020.2.10,MacIntel,60,,,,,,,,,,,,,,,,,,,,,,,,,,,,,,a,1,0.8391,,,,,,Q,a,White,,,,,,,,,,,,,,,,,,,,,,,,,,,,,,,,,,,0,27,27,27,1,,,,,
,,,,,,,,,,,,,,274,1,2024-01-22_09h06.41.306,Online_SceneSrcMD_E,2020.2.10,MacIntel,60,,,,,,,,,,,,,,,,,,,,,,,,,,,,,,n,1,0.5155,,,,,,1,n,White,,,,,,,,,,,,,,,,,,,,,,,,,,,,,,,,,,,0,28,28,28,1,,,,,
,,,,,,,,,,,,,,274,1,2024-01-22_09h06.41.306,Online_SceneSrcMD_E,2020.2.10,MacIntel,60,,,,,,,,,,,,,,,,,,,,,,,,,,,,,,n,1,0.4651,,,,,,2,n,White,,,,,,,,,,,,,,,,,,,,,,,,,,,,,,,,,,,0,29,29,29,1,,,,,
,,,,,,,,,,,,,,274,1,2024-01-22_09h06.41.306,Online_SceneSrcMD_E,2020.2.10,MacIntel,60,,,,,,,,,,,,,,,,,,,,,,,,,,,,,,n,1,0.4654,,,,,,3,n,White,,,,,,,,,,,,,,,,,,,,,,,,,,,,,,,,,,,0,30,30,30,1,,,,,
,,,,,,,,,,,,,,274,1,2024-01-22_09h06.41.306,Online_SceneSrcMD_E,2020.2.10,MacIntel,60,,,,,,,,,,,,,,,,,,,,,,,,,,,,,,a,1,0.4878,,,,,,L,a,White,,,,,,,,,,,,,,,,,,,,,,,,,,,,,,,,,,,0,31,31,31,1,,,,,
,,,,,,,,,,,,,,274,1,2024-01-22_09h06.41.306,Online_SceneSrcMD_E,2020.2.10,MacIntel,60,,,,,,,,,,,,,,,,,,,,,,,,,,,,,,a,1,1.3664,,,,,,Y,a,White,,,,,,,,,,,,,,,,,,,,,,,,,,,,,,,,,,,0,32,32,32,1,,,,,
,,,,,,,,,,,,,,274,1,2024-01-22_09h06.41.306,Online_SceneSrcMD_E,2020.2.10,MacIntel,60,,,,,,,,,,,,,,,,,,,,,,,,,,,,,,n,1,0.7824,,,,,,8,n,White,,,,,,,,,,,,,,,,,,,,,,,,,,,,,,,,,,,0,33,33,33,1,,,,,
,,,,,,,,,,,,,,274,1,2024-01-22_09h06.41.306,Online_SceneSrcMD_E,2020.2.10,MacIntel,60,,,,,,,,,,,,,,,,,,,,,,,,,,,,,,,,,,,,,,,,,,,,,,ZeroBlock.csv,Block 1,,,,,,,,,,,,,,,,,,,,,,,,,,,,,,,,,0,0,0,0,1
,,,,,,,,,,,,,,274,1,2024-01-22_09h06.41.306,Online_SceneSrcMD_E,2020.2.10,MacIntel,60,,,,,,,,,,,,,,,,,,,,,,,,,,,,,,n,1,0.5638,,,,,,6,n,White,,,,,,,,,,,,,,,,,,,,,,,,,,,,,,,,,,,0,0,0,0,1,,,,,
,,,,,,,,,,,,,,274,1,2024-01-22_09h06.41.306,Online_SceneSrcMD_E,2020.2.10,MacIntel,60,,,,,,,,,,,,,,,,,,,,,,,,,,,,,,n,1,0.888,,,,,,1,n,White,,,,,,,,,,,,,,,,,,,,,,,,,,,,,,,,,,,0,1,1,1,1,,,,,
,,,,,,,,,,,,,,274,1,2024-01-22_09h06.41.306,Online_SceneSrcMD_E,2020.2.10,MacIntel,60,,,,,,,,,,,,,,,,,,,,,,,,,,,,,,a,1,0.7968,,,,,,B,a,White,,,,,,,,,,,,,,,,,,,,,,,,,,,,,,,,,,,0,2,2,2,1,,,,,
,,,,,,,,,,,,,,274,1,2024-01-22_09h06.41.306,Online_SceneSrcMD_E,2020.2.10,MacIntel,60,,,,,,,,,,,,,,,,,,,,,,,,,,,,,,n,1,0.5818,,,,,,4,n,White,,,,,,,,,,,,,,,,,,,,,,,,,,,,,,,,,,,0,3,3,3,1,,,,,
,,,,,,,,,,,,,,274,1,2024-01-22_09h06.41.306,Online_SceneSrcMD_E,2020.2.10,MacIntel,60,,,,,,,,,,,,,,,,,,,,,,,,,,,,,,n,1,0.6794,,,,,,3,n,White,,,,,,,,,,,,,,,,,,,,,,,,,,,,,,,,,,,0,4,4,4,1,,,,,
,,,,,,,,,,,,,,274,1,2024-01-22_09h06.41.306,Online_SceneSrcMD_E,2020.2.10,MacIntel,60,,,,,,,,,,,,,,,,,,,,,,,,,,,,,,n,1,0.4862,,,,,,2,n,White,,,,,,,,,,,,,,,,,,,,,,,,,,,,,,,,,,,0,5,5,5,1,,,,,
,,,,,,,,,,,,,,274,1,2024-01-22_09h06.41.306,Online_SceneSrcMD_E,2020.2.10,MacIntel,60,,,,,,,,,,,,,,,,,,,,,,,,,,,,,,n,1,0.5546,,,,,,5,n,White,,,,,,,,,,,,,,,,,,,,,,,,,,,,,,,,,,,0,6,6,6,1,,,,,
,,,,,,,,,,,,,,274,1,2024-01-22_09h06.41.306,Online_SceneSrcMD_E,2020.2.10,MacIntel,60,,,,,,,,,,,,,,,,,,,,,,,,,,,,,,n,1,0.4722,,,,,,3,n,White,,,,,,,,,,,,,,,,,,,,,,,,,,,,,,,,,,,0,7,7,7,1,,,,,
,,,,,,,,,,,,,,274,1,2024-01-22_09h06.41.306,Online_SceneSrcMD_E,2020.2.10,MacIntel,60,,,,,,,,,,,,,,,,,,,,,,,,,,,,,,a,1,0.4623,,,,,,L,a,White,,,,,,,,,,,,,,,,,,,,,,,,,,,,,,,,,,,0,8,8,8,1,,,,,
,,,,,,,,,,,,,,274,1,2024-01-22_09h06.41.306,Online_SceneSrcMD_E,2020.2.10,MacIntel,60,,,,,,,,,,,,,,,,,,,,,,,,,,,,,,n,1,0.6555,,,,,,8,n,White,,,,,,,,,,,,,,,,,,,,,,,,,,,,,,,,,,,0,9,9,9,1,,,,,
,,,,,,,,,,,,,,274,1,2024-01-22_09h06.41.306,Online_SceneSrcMD_E,2020.2.10,MacIntel,60,,,,,,,,,,,,,,,,,,,,,,,,,,,,,,a,1,0.6333,,,,,,U,a,White,,,,,,,,,,,,,,,,,,,,,,,,,,,,,,,,,,,0,10,10,10,1,,,,,
,,,,,,,,,,,,,,274,1,2024-01-22_09h06.41.306,Online_SceneSrcMD_E,2020.2.10,MacIntel,60,,,,,,,,,,,,,,,,,,,,,,,,,,,,,,n,1,0.6238,,,,,,3,n,White,,,,,,,,,,,,,,,,,,,,,,,,,,,,,,,,,,,0,11,11,11,1,,,,,
,,,,,,,,,,,,,,274,1,2024-01-22_09h06.41.306,Online_SceneSrcMD_E,2020.2.10,MacIntel,60,,,,,,,,,,,,,,,,,,,,,,,,,,,,,,n,1,0.5817,,,,,,7,n,White,,,,,,,,,,,,,,,,,,,,,,,,,,,,,,,,,,,0,12,12,12,1,,,,,
,,,,,,,,,,,,,,274,1,2024-01-22_09h06.41.306,Online_SceneSrcMD_E,2020.2.10,MacIntel,60,,,,,,,,,,,,,,,,,,,,,,,,,,,,,,n,1,0.5485,,,,,,6,n,White,,,,,,,,,,,,,,,,,,,,,,,,,,,,,,,,,,,0,13,13,13,1,,,,,
,,,,,,,,,,,,,,274,1,2024-01-22_09h06.41.306,Online_SceneSrcMD_E,2020.2.10,MacIntel,60,,,,,,,,,,,,,,,,,,,,,,,,,,,,,,a,1,0.8906,,,,,,B,a,White,,,,,,,,,,,,,,,,,,,,,,,,,,,,,,,,,,,0,14,14,14,1,,,,,
,,,,,,,,,,,,,,274,1,2024-01-22_09h06.41.306,Online_SceneSrcMD_E,2020.2.10,MacIntel,60,,,,,,,,,,,,,,,,,,,,,,,,,,,,,,a,1,0.6646,,,,,,M,a,White,,,,,,,,,,,,,,,,,,,,,,,,,,,,,,,,,,,0,15,15,15,1,,,,,
,,,,,,,,,,,,,,274,1,2024-01-22_09h06.41.306,Online_SceneSrcMD_E,2020.2.10,MacIntel,60,,,,,,,,,,,,,,,,,,,,,,,,,,,,,,n,1,0.5702,,,,,,7,n,White,,,,,,,,,,,,,,,,,,,,,,,,,,,,,,,,,,,0,16,16,16,1,,,,,
,,,,,,,,,,,,,,274,1,2024-01-22_09h06.41.306,Online_SceneSrcMD_E,2020.2.10,MacIntel,60,,,,,,,,,,,,,,,,,,,,,,,,,,,,,,n,1,0.5187,,,,,,1,n,White,,,,,,,,,,,,,,,,,,,,,,,,,,,,,,,,,,,0,17,17,17,1,,,,,
,,,,,,,,,,,,,,274,1,2024-01-22_09h06.41.306,Online_SceneSrcMD_E,2020.2.10,MacIntel,60,,,,,,,,,,,,,,,,,,,,,,,,,,,,,,n,1,0.4984,,,,,,4,n,White,,,,,,,,,,,,,,,,,,,,,,,,,,,,,,,,,,,0,18,18,18,1,,,,,
,,,,,,,,,,,,,,274,1,2024-01-22_09h06.41.306,Online_SceneSrcMD_E,2020.2.10,MacIntel,60,,,,,,,,,,,,,,,,,,,,,,,,,,,,,,a,1,0.6159,,,,,,Z,a,White,,,,,,,,,,,,,,,,,,,,,,,,,,,,,,,,,,,0,19,19,19,1,,,,,
,,,,,,,,,,,,,,274,1,2024-01-22_09h06.41.306,Online_SceneSrcMD_E,2020.2.10,MacIntel,60,,,,,,,,,,,,,,,,,,,,,,,,,,,,,,n,1,0.5318,,,,,,5,n,White,,,,,,,,,,,,,,,,,,,,,,,,,,,,,,,,,,,0,20,20,20,1,,,,,
,,,,,,,,,,,,,,274,1,2024-01-22_09h06.41.306,Online_SceneSrcMD_E,2020.2.10,MacIntel,60,,,,,,,,,,,,,,,,,,,,,,,,,,,,,,a,1,0.7818,,,,,,S,a,White,,,,,,,,,,,,,,,,,,,,,,,,,,,,,,,,,,,0,21,21,21,1,,,,,
,,,,,,,,,,,,,,274,1,2024-01-22_09h06.41.306,Online_SceneSrcMD_E,2020.2.10,MacIntel,60,,,,,,,,,,,,,,,,,,,,,,,,,,,,,,a,1,0.5225,,,,,,V,a,White,,,,,,,,,,,,,,,,,,,,,,,,,,,,,,,,,,,0,22,22,22,1,,,,,
,,,,,,,,,,,,,,274,1,2024-01-22_09h06.41.306,Online_SceneSrcMD_E,2020.2.10,MacIntel,60,,,,,,,,,,,,,,,,,,,,,,,,,,,,,,n,1,1.0498,,,,,,4,n,White,,,,,,,,,,,,,,,,,,,,,,,,,,,,,,,,,,,0,23,23,23,1,,,,,
,,,,,,,,,,,,,,274,1,2024-01-22_09h06.41.306,Online_SceneSrcMD_E,2020.2.10,MacIntel,60,,,,,,,,,,,,,,,,,,,,,,,,,,,,,,n,1,0.6481,,,,,,6,n,White,,,,,,,,,,,,,,,,,,,,,,,,,,,,,,,,,,,0,24,24,24,1,,,,,
,,,,,,,,,,,,,,274,1,2024-01-22_09h06.41.306,Online_SceneSrcMD_E,2020.2.10,MacIntel,60,,,,,,,,,,,,,,,,,,,,,,,,,,,,,,n,1,0.5824,,,,,,7,n,White,,,,,,,,,,,,,,,,,,,,,,,,,,,,,,,,,,,0,25,25,25,1,,,,,
,,,,,,,,,,,,,,274,1,2024-01-22_09h06.41.306,Online_SceneSrcMD_E,2020.2.10,MacIntel,60,,,,,,,,,,,,,,,,,,,,,,,,,,,,,,n,1,0.5321,,,,,,5,n,White,,,,,,,,,,,,,,,,,,,,,,,,,,,,,,,,,,,0,26,26,26,1,,,,,
,,,,,,,,,,,,,,274,1,2024-01-22_09h06.41.306,Online_SceneSrcMD_E,2020.2.10,MacIntel,60,,,,,,,,,,,,,,,,,,,,,,,,,,,,,,n,1,0.6661,,,,,,0,n,White,,,,,,,,,,,,,,,,,,,,,,,,,,,,,,,,,,,0,27,27,27,1,,,,,
,,,,,,,,,,,,,,274,1,2024-01-22_09h06.41.306,Online_SceneSrcMD_E,2020.2.10,MacIntel,60,,,,,,,,,,,,,,,,,,,,,,,,,,,,,,a,1,1.1643,,,,,,G,a,White,,,,,,,,,,,,,,,,,,,,,,,,,,,,,,,,,,,0,28,28,28,1,,,,,
,,,,,,,,,,,,,,274,1,2024-01-22_09h06.41.306,Online_SceneSrcMD_E,2020.2.10,MacIntel,60,,,,,,,,,,,,,,,,,,,,,,,,,,,,,,a,1,0.5477,,,,,,V,a,White,,,,,,,,,,,,,,,,,,,,,,,,,,,,,,,,,,,0,29,29,29,1,,,,,
,,,,,,,,,,,,,,274,1,2024-01-22_09h06.41.306,Online_SceneSrcMD_E,2020.2.10,MacIntel,60,,,,,,,,,,,,,,,,,,,,,,,,,,,,,,n,1,0.6318,,,,,,5,n,White,,,,,,,,,,,,,,,,,,,,,,,,,,,,,,,,,,,0,30,30,30,1,,,,,
,,,,,,,,,,,,,,274,1,2024-01-22_09h06.41.306,Online_SceneSrcMD_E,2020.2.10,MacIntel,60,,,,,,,,,,,,,,,,,,,,,,,,,,,,,,n,1,0.8992,,,,,,5,n,White,,,,,,,,,,,,,,,,,,,,,,,,,,,,,,,,,,,0,31,31,31,1,,,,,
,,,,,,,,,,,,,,274,1,2024-01-22_09h06.41.306,Online_SceneSrcMD_E,2020.2.10,MacIntel,60,,,,,,,,,,,,,,,,,,,,,,,,,,,,,,a,1,0.9492,,,,,,Y,a,White,,,,,,,,,,,,,,,,,,,,,,,,,,,,,,,,,,,0,32,32,32,1,,,,,
,,,,,,,,,,,,,,274,1,2024-01-22_09h06.41.306,Online_SceneSrcMD_E,2020.2.10,MacIntel,60,,,,,,,,,,,,,,,,,,,,,,,,,,,,,,a,1,1.916,,,,,,R,a,White,,,,,,,,,,,,,,,,,,,,,,,,,,,,,,,,,,,0,33,33,33,1,,,,,
,,,,,,,,,,,,,,274,1,2024-01-22_09h06.41.306,Online_SceneSrcMD_E,2020.2.10,MacIntel,60,,,,,,,,,,,,,,,,,,,,,,,,,,,,,,,,,,,,,,,,,,,,,,OneBlock.csv,Block 2,,,,,,,,,,,,,,,,,,,,,,,,,,,,,,,,,0,1,1,1,1
,,,,,,,,,,,,,,274,1,2024-01-22_09h06.41.306,Online_SceneSrcMD_E,2020.2.10,MacIntel,60,,,,,,,,,,,,,,,,,,,,,,,,,,,,,,n,1,0.8606,,,,,,3,n,White,,,,,,,,,,,,,,,,,,,,,,,,,,,,,,,,,,,0,0,0,0,1,,,,,
,,,,,,,,,,,,,,274,1,2024-01-22_09h06.41.306,Online_SceneSrcMD_E,2020.2.10,MacIntel,60,,,,,,,,,,,,,,,,,,,,,,,,,,,,,,n,1,0.6708,,,,,,2,n,White,,,,,,,,,,,,,,,,,,,,,,,,,,,,,,,,,,,0,1,1,1,1,,,,,
,,,,,,,,,,,,,,274,1,2024-01-22_09h06.41.306,Online_SceneSrcMD_E,2020.2.10,MacIntel,60,,,,,,,,,,,,,,,,,,,,,,,,,,,,,,a,1,0.5233,,,,,,E,a,White,,,,,,,,,,,,,,,,,,,,,,,,,,,,,,,,,,,0,2,2,2,1,,,,,
,,,,,,,,,,,,,,274,1,2024-01-22_09h06.41.306,Online_SceneSrcMD_E,2020.2.10,MacIntel,60,,,,,,,,,,,,,,,,,,,,,,,,,,,,,,n,1,0.6309,,,,,,6,n,White,,,,,,,,,,,,,,,,,,,,,,,,,,,,,,,,,,,0,3,3,3,1,,,,,
,,,,,,,,,,,,,,274,1,2024-01-22_09h06.41.306,Online_SceneSrcMD_E,2020.2.10,MacIntel,60,,,,,,,,,,,,,,,,,,,,,,,,,,,,,,a,1,1.2294,,,,,,I,a,White,,,,,,,,,,,,,,,,,,,,,,,,,,,,,,,,,,,0,4,4,4,1,,,,,
,,,,,,,,,,,,,,274,1,2024-01-22_09h06.41.306,Online_SceneSrcMD_E,2020.2.10,MacIntel,60,,,,,,,,,,,,,,,,,,,,,,,,,,,,,,n,1,0.6395,,,,,,1,n,White,,,,,,,,,,,,,,,,,,,,,,,,,,,,,,,,,,,0,5,5,5,1,,,,,
,,,,,,,,,,,,,,274,1,2024-01-22_09h06.41.306,Online_SceneSrcMD_E,2020.2.10,MacIntel,60,,,,,,,,,,,,,,,,,,,,,,,,,,,,,,n,1,1.2475,,,,,,6,n,White,,,,,,,,,,,,,,,,,,,,,,,,,,,,,,,,,,,0,6,6,6,1,,,,,
,,,,,,,,,,,,,,274,1,2024-01-22_09h06.41.306,Online_SceneSrcMD_E,2020.2.10,MacIntel,60,,,,,,,,,,,,,,,,,,,,,,,,,,,,,,a,1,1.2658,,,,,,B,a,White,,,,,,,,,,,,,,,,,,,,,,,,,,,,,,,,,,,0,7,7,7,1,,,,,
,,,,,,,,,,,,,,274,1,2024-01-22_09h06.41.306,Online_SceneSrcMD_E,2020.2.10,MacIntel,60,,,,,,,,,,,,,,,,,,,,,,,,,,,,,,n,1,1.635,,,,,,9,n,White,,,,,,,,,,,,,,,,,,,,,,,,,,,,,,,,,,,0,8,8,8,1,,,,,
,,,,,,,,,,,,,,274,1,2024-01-22_09h06.41.306,Online_SceneSrcMD_E,2020.2.10,MacIntel,60,,,,,,,,,,,,,,,,,,,,,,,,,,,,,,n,1,0.6806,,,,,,7,n,White,,,,,,,,,,,,,,,,,,,,,,,,,,,,,,,,,,,0,9,9,9,1,,,,,
,,,,,,,,,,,,,,274,1,2024-01-22_09h06.41.306,Online_SceneSrcMD_E,2020.2.10,MacIntel,60,,,,,,,,,,,,,,,,,,,,,,,,,,,,,,n,1,0.782,,,,,,7,n,White,,,,,,,,,,,,,,,,,,,,,,,,,,,,,,,,,,,0,10,10,10,1,,,,,
,,,,,,,,,,,,,,274,1,2024-01-22_09h06.41.306,Online_SceneSrcMD_E,2020.2.10,MacIntel,60,,,,,,,,,,,,,,,,,,,,,,,,,,,,,,a,1,0.9348,,,,,,J,a,White,,,,,,,,,,,,,,,,,,,,,,,,,,,,,,,,,,,0,11,11,11,1,,,,,
,,,,,,,,,,,,,,274,1,2024-01-22_09h06.41.306,Online_SceneSrcMD_E,2020.2.10,MacIntel,60,,,,,,,,,,,,,,,,,,,,,,,,,,,,,,a,1,0.6992,,,,,,H,a,White,,,,,,,,,,,,,,,,,,,,,,,,,,,,,,,,,,,0,12,12,12,1,,,,,
,,,,,,,,,,,,,,274,1,2024-01-22_09h06.41.306,Online_SceneSrcMD_E,2020.2.10,MacIntel,60,,,,,,,,,,,,,,,,,,,,,,,,,,,,,,n,1,1.2809,,,,,,1,n,White,,,,,,,,,,,,,,,,,,,,,,,,,,,,,,,,,,,0,13,13,13,1,,,,,
,,,,,,,,,,,,,,274,1,2024-01-22_09h06.41.306,Online_SceneSrcMD_E,2020.2.10,MacIntel,60,,,,,,,,,,,,,,,,,,,,,,,,,,,,,,a,1,1.3995,,,,,,H,a,White,,,,,,,,,,,,,,,,,,,,,,,,,,,,,,,,,,,0,14,14,14,1,,,,,
,,,,,,,,,,,,,,274,1,2024-01-22_09h06.41.306,Online_SceneSrcMD_E,2020.2.10,MacIntel,60,,,,,,,,,,,,,,,,,,,,,,,,,,,,,,n,1,1.3312,,,,,,0,n,White,,,,,,,,,,,,,,,,,,,,,,,,,,,,,,,,,,,0,15,15,15,1,,,,,
,,,,,,,,,,,,,,274,1,2024-01-22_09h06.41.306,Online_SceneSrcMD_E,2020.2.10,MacIntel,60,,,,,,,,,,,,,,,,,,,,,,,,,,,,,,n,1,0.564,,,,,,1,n,White,,,,,,,,,,,,,,,,,,,,,,,,,,,,,,,,,,,0,16,16,16,1,,,,,
,,,,,,,,,,,,,,274,1,2024-01-22_09h06.41.306,Online_SceneSrcMD_E,2020.2.10,MacIntel,60,,,,,,,,,,,,,,,,,,,,,,,,,,,,,,a,1,0.9326,,,,,,L,a,White,,,,,,,,,,,,,,,,,,,,,,,,,,,,,,,,,,,0,17,17,17,1,,,,,
,,,,,,,,,,,,,,274,1,2024-01-22_09h06.41.306,Online_SceneSrcMD_E,2020.2.10,MacIntel,60,,,,,,,,,,,,,,,,,,,,,,,,,,,,,,n,1,0.6343,,,,,,6,n,White,,,,,,,,,,,,,,,,,,,,,,,,,,,,,,,,,,,0,18,18,18,1,,,,,
,,,,,,,,,,,,,,274,1,2024-01-22_09h06.41.306,Online_SceneSrcMD_E,2020.2.10,MacIntel,60,,,,,,,,,,,,,,,,,,,,,,,,,,,,,,n,1,0.5346,,,,,,7,n,White,,,,,,,,,,,,,,,,,,,,,,,,,,,,,,,,,,,0,19,19,19,1,,,,,
,,,,,,,,,,,,,,274,1,2024-01-22_09h06.41.306,Online_SceneSrcMD_E,2020.2.10,MacIntel,60,,,,,,,,,,,,,,,,,,,,,,,,,,,,,,n,1,0.5237,,,,,,9,n,White,,,,,,,,,,,,,,,,,,,,,,,,,,,,,,,,,,,0,20,20,20,1,,,,,
,,,,,,,,,,,,,,274,1,2024-01-22_09h06.41.306,Online_SceneSrcMD_E,2020.2.10,MacIntel,60,,,,,,,,,,,,,,,,,,,,,,,,,,,,,,a,1,0.6555,,,,,,X,a,White,,,,,,,,,,,,,,,,,,,,,,,,,,,,,,,,,,,0,21,21,21,1,,,,,
,,,,,,,,,,,,,,274,1,2024-01-22_09h06.41.306,Online_SceneSrcMD_E,2020.2.10,MacIntel,60,,,,,,,,,,,,,,,,,,,,,,,,,,,,,,a,1,0.7312,,,,,,W,a,White,,,,,,,,,,,,,,,,,,,,,,,,,,,,,,,,,,,0,22,22,22,1,,,,,
,,,,,,,,,,,,,,274,1,2024-01-22_09h06.41.306,Online_SceneSrcMD_E,2020.2.10,MacIntel,60,,,,,,,,,,,,,,,,,,,,,,,,,,,,,,n,1,1.1183,,,,,,4,n,White,,,,,,,,,,,,,,,,,,,,,,,,,,,,,,,,,,,0,23,23,23,1,,,,,
,,,,,,,,,,,,,,274,1,2024-01-22_09h06.41.306,Online_SceneSrcMD_E,2020.2.10,MacIntel,60,,,,,,,,,,,,,,,,,,,,,,,,,,,,,,n,1,1.3317,,,,,,5,n,White,,,,,,,,,,,,,,,,,,,,,,,,,,,,,,,,,,,0,24,24,24,1,,,,,
,,,,,,,,,,,,,,274,1,2024-01-22_09h06.41.306,Online_SceneSrcMD_E,2020.2.10,MacIntel,60,,,,,,,,,,,,,,,,,,,,,,,,,,,,,,a,1,0.3805,,,,,,N,a,White,,,,,,,,,,,,,,,,,,,,,,,,,,,,,,,,,,,0,25,25,25,1,,,,,
,,,,,,,,,,,,,,274,1,2024-01-22_09h06.41.306,Online_SceneSrcMD_E,2020.2.10,MacIntel,60,,,,,,,,,,,,,,,,,,,,,,,,,,,,,,n,1,0.9073,,,,,,5,n,White,,,,,,,,,,,,,,,,,,,,,,,,,,,,,,,,,,,0,26,26,26,1,,,,,
,,,,,,,,,,,,,,274,1,2024-01-22_09h06.41.306,Online_SceneSrcMD_E,2020.2.10,MacIntel,60,,,,,,,,,,,,,,,,,,,,,,,,,,,,,,a,1,0.6856,,,,,,Y,a,White,,,,,,,,,,,,,,,,,,,,,,,,,,,,,,,,,,,0,27,27,27,1,,,,,
,,,,,,,,,,,,,,274,1,2024-01-22_09h06.41.306,Online_SceneSrcMD_E,2020.2.10,MacIntel,60,,,,,,,,,,,,,,,,,,,,,,,,,,,,,,a,1,0.555,,,,,,M,a,White,,,,,,,,,,,,,,,,,,,,,,,,,,,,,,,,,,,0,28,28,28,1,,,,,
,,,,,,,,,,,,,,274,1,2024-01-22_09h06.41.306,Online_SceneSrcMD_E,2020.2.10,MacIntel,60,,,,,,,,,,,,,,,,,,,,,,,,,,,,,,a,1,1.9662,,,,,,U,a,White,,,,,,,,,,,,,,,,,,,,,,,,,,,,,,,,,,,0,29,29,29,1,,,,,
,,,,,,,,,,,,,,274,1,2024-01-22_09h06.41.306,Online_SceneSrcMD_E,2020.2.10,MacIntel,60,,,,,,,,,,,,,,,,,,,,,,,,,,,,,,n,1,0.8186,,,,,,6,n,White,,,,,,,,,,,,,,,,,,,,,,,,,,,,,,,,,,,0,30,30,30,1,,,,,
,,,,,,,,,,,,,,274,1,2024-01-22_09h06.41.306,Online_SceneSrcMD_E,2020.2.10,MacIntel,60,,,,,,,,,,,,,,,,,,,,,,,,,,,,,,n,1,1.318,,,,,,6,n,White,,,,,,,,,,,,,,,,,,,,,,,,,,,,,,,,,,,0,31,31,31,1,,,,,
,,,,,,,,,,,,,,274,1,2024-01-22_09h06.41.306,Online_SceneSrcMD_E,2020.2.10,MacIntel,60,,,,,,,,,,,,,,,,,,,,,,,,,,,,,,a,1,1.0475,,,,,,Y,a,White,,,,,,,,,,,,,,,,,,,,,,,,,,,,,,,,,,,0,32,32,32,1,,,,,
,,,,,,,,,,,,,,274,1,2024-01-22_09h06.41.306,Online_SceneSrcMD_E,2020.2.10,MacIntel,60,,,,,,,,,,,,,,,,,,,,,,,,,,,,,,a,1,0.823,,,,,,I,a,White,,,,,,,,,,,,,,,,,,,,,,,,,,,,,,,,,,,0,33,33,33,1,,,,,
,,,,,,,,,,,,,,274,1,2024-01-22_09h06.41.306,Online_SceneSrcMD_E,2020.2.10,MacIntel,60,,,,,,,,,,,,,,,,,,,,,,,,,,,,,,,,,,,,,,,,,,,,,,TwoBlock.csv,Block 3,,,,,,,,,,,,,,,,,,,,,,,,,,,,,,,,,0,2,2,2,1