Instructions_Loop.thisRepN,Instructions_Loop.thisTrialN,Instructions_Loop.thisN,Instructions_Loop.thisIndex,Instructions_Loop.ran,Top,Top_Bottom,TBMT_int,Middle_Top,Middle,Middle_Bottom,Bottom_Top,Bottom_Middle,Bottom,Photo,Mid_Photo,participant,session,date,expName,psychopyVersion,OS,frameRate,Redo_Instructions_Resp.keys,Redo_Instructions_Resp.rt,Redo_Instructions_Loop.thisRepN,Redo_Instructions_Loop.thisTrialN,Redo_Instructions_Loop.thisN,Redo_Instructions_Loop.thisIndex,Redo_Instructions_Loop.ran,Practice_Responding.keys,Practice_Responding.corr,Practice_Responding.rt,Repeat_Loop.thisRepN,Repeat_Loop.thisTrialN,Repeat_Loop.thisN,Repeat_Loop.thisIndex,Repeat_Loop.ran,Practice_Loop.thisRepN,Practice_Loop.thisTrialN,Practice_Loop.thisN,Practice_Loop.thisIndex,Practice_Loop.ran,Prac_Scene,Scale,Prac_Ans,PracticeText,Warning_Sign.thisRepN,Warning_Sign.thisTrialN,Warning_Sign.thisN,Warning_Sign.thisIndex,Warning_Sign.ran,Encoding_Resp.keys,Encoding_Resp.rt,Item_Mem_Response,Item_Conf_Response,Src_LoopRun,Src_Resp.keys,Src_Resp.rt,Source_Mem_Response,Source_Conf_Response,Src_Blocks.thisRepN,Src_Blocks.thisTrialN,Src_Blocks.thisN,Src_Blocks.thisIndex,Src_Blocks.ran,Blocks.thisRepN,Blocks.thisTrialN,Blocks.thisN,Blocks.thisIndex,Blocks.ran,Rec_Scene,RecAns,Src_Scene,SrcAns,Group_Order.thisRepN,Group_Order.thisTrialN,Group_Order.thisN,Group_Order.thisIndex,Group_Order.ran,blockFile,Src_blockFile
0,0,0,0,1,NaN,NaN,NaN,NaN,welcome,NaN,NaN,NaN,press SPACE to continue,Empty.png,Empty.png,284,1,2024-02-09_11h38.33.247,Online_SceneSrcMD_R,2020.2.10,MacIntel,60,,,,,,,,,,,,,,,,,,,,,,,,,,,,,,,,,,,,,,,,,,,,,,,,,,,,,,,,,,,
0,1,1,1,1,in this experiment you will complete a memory test for the images and colored frames that were presented yesterday.,NaN,NaN,the memory test will include previously seen AND new images.,NaN,NaN,NaN,NaN,press SPACE to continue,Empty.png,Empty.png,284,1,2024-02-09_11h38.33.247,Online_SceneSrcMD_R,2020.2.10,MacIntel,60,,,,,,,,,,,,,,,,,,,,,,,,,,,,,,,,,,,,,,,,,,,,,,,,,,,,,,,,,,,
0,2,2,2,1,images will be presented on the screen one at a time.,NaN,NaN,six blocks of images will be presented.,NaN,NaN,NaN,NaN,press SPACE to continue,Empty.png,Empty.png,284,1,2024-02-09_11h38.33.247,Online_SceneSrcMD_R,2020.2.10,MacIntel,60,,,,,,,,,,,,,,,,,,,,,,,,,,,,,,,,,,,,,,,,,,,,,,,,,,,,,,,,,,,
0,3,3,3,1,some of the images will portray scenes with emotional content.,NaN,NaN,if you become uncomfortable please remember that you can leave the experiment at any point without penalty.,NaN,NaN,NaN,NaN,press SPACE to continue,Empty.png,Empty.png,284,1,2024-02-09_11h38.33.247,Online_SceneSrcMD_R,2020.2.10,MacIntel,60,,,,,,,,,,,,,,,,,,,,,,,,,,,,,,,,,,,,,,,,,,,,,,,,,,,,,,,,,,,
0,4,4,4,1,"you will first report whether you remember previously seeing each image, and your confidence in your response.",when responding refer to the scale below:,NaN,NaN,NaN,use your keyboard to submit your response.,NaN,NaN,press SPACE to continue,Alternative_Scale.png,Empty.png,284,1,2024-02-09_11h38.33.247,Online_SceneSrcMD_R,2020.2.10,MacIntel,60,,,,,,,,,,,,,,,,,,,,,,,,,,,,,,,,,,,,,,,,,,,,,,,,,,,,,,,,,,,
0,5,5,5,1,"if you DO NOT remember seeing the image previously, use your left hand to respond using either the 'A', 'S', or 'D' keys.",NaN,NaN,NaN,NaN,'A' is Very Confident No (3),'D' is Not Confident No (1),'S' is Somewhat Confident No (2),press SPACE to continue,Alternative_Scale.png,Empty.png,284,1,2024-02-09_11h38.33.247,Online_SceneSrcMD_R,2020.2.10,MacIntel,60,,,,,,,,,,,,,,,,,,,,,,,,,,,,,,,,,,,,,,,,,,,,,,,,,,,,,,,,,,,
0,6,6,6,1,"if you DO remember seeing the image previously, use your right hand to respond using either the 'J', 'K', or 'L' keys.",NaN,NaN,NaN,NaN,'J' is Not Confident Yes (1),'L' is Very Confident Yes (3),'K' is Somewhat Confident Yes (2),press SPACE to continue,Alternative_Scale.png,Empty.png,284,1,2024-02-09_11h38.33.247,Online_SceneSrcMD_R,2020.2.10,MacIntel,60,,,,,,,,,,,,,,,,,,,,,,,,,,,,,,,,,,,,,,,,,,,,,,,,,,,,,,,,,,,
0,7,7,7,1,NaN,keep both hands on the keyboard once you begin the memory test.,NaN,NaN,NaN,"we are interested in your first reaction, so respond at your own pace but please report your initial ""gut reaction"".",NaN,NaN,press SPACE to continue,Empty.png,Empty.png,284,1,2024-02-09_11h38.33.247,Online_SceneSrcMD_R,2020.2.10,MacIntel,60,,,,,,,,,,,,,,,,,,,,,,,,,,,,,,,,,,,,,,,,,,,,,,,,,,,,,,,,,,,
0,8,8,8,1,NaN,NaN,please use the full range of the scale.,NaN,NaN,NaN,NaN,NaN,press SPACE to continue,Empty.png,Empty.png,284,1,2024-02-09_11h38.33.247,Online_SceneSrcMD_R,2020.2.10,MacIntel,60,,,,,,,,,,,,,,,,,,,,,,,,,,,,,,,,,,,,,,,,,,,,,,,,,,,,,,,,,,,
0,9,9,9,1,example of what you will see when reporting your memory for the image:,NaN,NaN,NaN,NaN,If you very confidently remembered this image you would press 'L'.,"If you very confidently did not remember, you would press 'A'.",NaN,press SPACE to continue,Empty.png,TS03scene_Rec.png,284,1,2024-02-09_11h38.33.247,Online_SceneSrcMD_R,2020.2.10,MacIntel,60,,,,,,,,,,,,,,,,,,,,,,,,,,,,,,,,,,,,,,,,,,,,,,,,,,,,,,,,,,,
0,10,10,10,1,"for remembered images, your memory and associated confidence will also be tested for the frame color which surrounded the image.",when responding refer to the scale below:,NaN,NaN,NaN,use your keyboard to submit your response.,NaN,NaN,press SPACE to continue,Alternative_Scale.png,Empty.png,284,1,2024-02-09_11h38.33.247,Online_SceneSrcMD_R,2020.2.10,MacIntel,60,,,,,,,,,,,,,,,,,,,,,,,,,,,,,,,,,,,,,,,,,,,,,,,,,,,,,,,,,,,
0,11,11,11,1,"if the color of the frame around the image differs from what you remember, use your left hand to respond using either the 'A', 'S', or 'D' keys.",NaN,NaN,NaN,NaN,'A' is Very Confident No (3),'D' is Not Confident No (1),'S' is Somewhat Confident No (2),press SPACE to continue,Alternative_Scale.png,Empty.png,284,1,2024-02-09_11h38.33.247,Online_SceneSrcMD_R,2020.2.10,MacIntel,60,,,,,,,,,,,,,,,,,,,,,,,,,,,,,,,,,,,,,,,,,,,,,,,,,,,,,,,,,,,
0,12,12,12,1,"if the color of the frame around the image matches what you remember, use your right hand to respond using either the 'J', 'K', or 'L' keys.",NaN,NaN,NaN,NaN,'J' is Not Confident Yes (1),'L' is Very Confident Yes (3),'K' is Somewhat Confident Yes (2),press SPACE to continue,Alternative_Scale.png,Empty.png,284,1,2024-02-09_11h38.33.247,Online_SceneSrcMD_R,2020.2.10,MacIntel,60,,,,,,,,,,,,,,,,,,,,,,,,,,,,,,,,,,,,,,,,,,,,,,,,,,,,,,,,,,,
0,13,13,13,1,example of what you will see when reporting your memory for the frame color:,NaN,NaN,NaN,NaN,If you very confidently remembered a yellow frame around the image you would press 'L'.,"If you very confidently remembered another color around the frame, you would press 'A'.",NaN,press SPACE to continue,Empty.png,TS03scene_SrcRec.png,284,1,2024-02-09_11h38.33.247,Online_SceneSrcMD_R,2020.2.10,MacIntel,60,,,,,,,,,,,,,,,,,,,,,,,,,,,,,,,,,,,,,,,,,,,,,,,,,,,,,,,,,,,
0,14,14,14,1,NaN,NaN,NaN,this is the end of the instructions,NaN,NaN,NaN,NaN,press SPACE to continue,Empty.png,Empty.png,284,1,2024-02-09_11h38.33.247,Online_SceneSrcMD_R,2020.2.10,MacIntel,60,,,,,,,,,,,,,,,,,,,,,,,,,,,,,,,,,,,,,,,,,,,,,,,,,,,,,,,,,,,
,,,,,NaN,NaN,NaN,NaN,welcome,NaN,NaN,NaN,press SPACE to continue,Empty.png,Empty.png,284,1,2024-02-09_11h38.33.247,Online_SceneSrcMD_R,2020.2.10,MacIntel,60,r,6.4486,0,0,0,0,1,,,,,,,,,,,,,,,,,,,,,,,,,,,,,,,,,,,,,,,,,,,,,,,,,,,,
,,,,,in this experiment you will complete a memory test for the images and colored frames that were presented yesterday.,NaN,NaN,the memory test will include previously seen AND new images.,NaN,NaN,NaN,NaN,press SPACE to continue,Empty.png,Empty.png,284,1,2024-02-09_11h38.33.247,Online_SceneSrcMD_R,2020.2.10,MacIntel,60,,,0,1,1,1,1,,,,,,,,,,,,,,,,,,,,,,,,,,,,,,,,,,,,,,,,,,,,,,,,,,,,
,,,,,images will be presented on the screen one at a time.,NaN,NaN,six blocks of images will be presented.,NaN,NaN,NaN,NaN,press SPACE to continue,Empty.png,Empty.png,284,1,2024-02-09_11h38.33.247,Online_SceneSrcMD_R,2020.2.10,MacIntel,60,,,0,2,2,2,1,,,,,,,,,,,,,,,,,,,,,,,,,,,,,,,,,,,,,,,,,,,,,,,,,,,,
,,,,,some of the images will portray scenes with emotional content.,NaN,NaN,if you become uncomfortable please remember that you can leave the experiment at any point without penalty.,NaN,NaN,NaN,NaN,press SPACE to continue,Empty.png,Empty.png,284,1,2024-02-09_11h38.33.247,Online_SceneSrcMD_R,2020.2.10,MacIntel,60,,,0,3,3,3,1,,,,,,,,,,,,,,,,,,,,,,,,,,,,,,,,,,,,,,,,,,,,,,,,,,,,
,,,,,"you will first report whether you remember previously seeing each image, and your confidence in your response.",when responding refer to the scale below:,NaN,NaN,NaN,use your keyboard to submit your response.,NaN,NaN,press SPACE to continue,Alternative_Scale.png,Empty.png,284,1,2024-02-09_11h38.33.247,Online_SceneSrcMD_R,2020.2.10,MacIntel,60,,,0,4,4,4,1,,,,,,,,,,,,,,,,,,,,,,,,,,,,,,,,,,,,,,,,,,,,,,,,,,,,
,,,,,"if you DO NOT remember seeing the image previously, use your left hand to respond using either the 'A', 'S', or 'D' keys.",NaN,NaN,NaN,NaN,'A' is Very Confident No (3),'D' is Not Confident No (1),'S' is Somewhat Confident No (2),press SPACE to continue,Alternative_Scale.png,Empty.png,284,1,2024-02-09_11h38.33.247,Online_SceneSrcMD_R,2020.2.10,MacIntel,60,,,0,5,5,5,1,,,,,,,,,,,,,,,,,,,,,,,,,,,,,,,,,,,,,,,,,,,,,,,,,,,,
,,,,,"if you DO remember seeing the image previously, use your right hand to respond using either the 'J', 'K', or 'L' keys.",NaN,NaN,NaN,NaN,'J' is Not Confident Yes (1),'L' is Very Confident Yes (3),'K' is Somewhat Confident Yes (2),press SPACE to continue,Alternative_Scale.png,Empty.png,284,1,2024-02-09_11h38.33.247,Online_SceneSrcMD_R,2020.2.10,MacIntel,60,,,0,6,6,6,1,,,,,,,,,,,,,,,,,,,,,,,,,,,,,,,,,,,,,,,,,,,,,,,,,,,,
,,,,,NaN,keep both hands on the keyboard once you begin the memory test.,NaN,NaN,NaN,"we are interested in your first reaction, so respond at your own pace but please report your initial ""gut reaction"".",NaN,NaN,press SPACE to continue,Empty.png,Empty.png,284,1,2024-02-09_11h38.33.247,Online_SceneSrcMD_R,2020.2.10,MacIntel,60,,,0,7,7,7,1,,,,,,,,,,,,,,,,,,,,,,,,,,,,,,,,,,,,,,,,,,,,,,,,,,,,
,,,,,NaN,NaN,please use the full range of the scale.,NaN,NaN,NaN,NaN,NaN,press SPACE to continue,Empty.png,Empty.png,284,1,2024-02-09_11h38.33.247,Online_SceneSrcMD_R,2020.2.10,MacIntel,60,,,0,8,8,8,1,,,,,,,,,,,,,,,,,,,,,,,,,,,,,,,,,,,,,,,,,,,,,,,,,,,,
,,,,,example of what you will see when reporting your memory for the image:,NaN,NaN,NaN,NaN,If you very confidently remembered this image you would press 'L'.,"If you very confidently did not remember, you would press 'A'.",NaN,press SPACE to continue,Empty.png,TS03scene_Rec.png,284,1,2024-02-09_11h38.33.247,Online_SceneSrcMD_R,2020.2.10,MacIntel,60,,,0,9,9,9,1,,,,,,,,,,,,,,,,,,,,,,,,,,,,,,,,,,,,,,,,,,,,,,,,,,,,
,,,,,"for remembered images, your memory and associated confidence will also be tested for the frame color which surrounded the image.",when responding refer to the scale below:,NaN,NaN,NaN,use your keyboard to submit your response.,NaN,NaN,press SPACE to continue,Alternative_Scale.png,Empty.png,284,1,2024-02-09_11h38.33.247,Online_SceneSrcMD_R,2020.2.10,MacIntel,60,,,0,10,10,10,1,,,,,,,,,,,,,,,,,,,,,,,,,,,,,,,,,,,,,,,,,,,,,,,,,,,,
,,,,,"if the color of the frame around the image differs from what you remember, use your left hand to respond using either the 'A', 'S', or 'D' keys.",NaN,NaN,NaN,NaN,'A' is Very Confident No (3),'D' is Not Confident No (1),'S' is Somewhat Confident No (2),press SPACE to continue,Alternative_Scale.png,Empty.png,284,1,2024-02-09_11h38.33.247,Online_SceneSrcMD_R,2020.2.10,MacIntel,60,,,0,11,11,11,1,,,,,,,,,,,,,,,,,,,,,,,,,,,,,,,,,,,,,,,,,,,,,,,,,,,,
,,,,,"if the color of the frame around the image matches what you remember, use your right hand to respond using either the 'J', 'K', or 'L' keys.",NaN,NaN,NaN,NaN,'J' is Not Confident Yes (1),'L' is Very Confident Yes (3),'K' is Somewhat Confident Yes (2),press SPACE to continue,Alternative_Scale.png,Empty.png,284,1,2024-02-09_11h38.33.247,Online_SceneSrcMD_R,2020.2.10,MacIntel,60,,,0,12,12,12,1,,,,,,,,,,,,,,,,,,,,,,,,,,,,,,,,,,,,,,,,,,,,,,,,,,,,
,,,,,example of what you will see when reporting your memory for the frame color:,NaN,NaN,NaN,NaN,If you very confidently remembered a yellow frame around the image you would press 'L'.,"If you very confidently remembered another color around the frame, you would press 'A'.",NaN,press SPACE to continue,Empty.png,TS03scene_SrcRec.png,284,1,2024-02-09_11h38.33.247,Online_SceneSrcMD_R,2020.2.10,MacIntel,60,,,0,13,13,13,1,,,,,,,,,,,,,,,,,,,,,,,,,,,,,,,,,,,,,,,,,,,,,,,,,,,,
,,,,,NaN,NaN,NaN,this is the end of the instructions,NaN,NaN,NaN,NaN,press SPACE to continue,Empty.png,Empty.png,284,1,2024-02-09_11h38.33.247,Online_SceneSrcMD_R,2020.2.10,MacIntel,60,,,0,14,14,14,1,,,,,,,,,,,,,,,,,,,,,,,,,,,,,,,,,,,,,,,,,,,,,,,,,,,,
,,,,,,,,,,,,,,,,284,1,2024-02-09_11h38.33.247,Online_SceneSrcMD_R,2020.2.10,MacIntel,60,,,,,,,,p,1,15.6344,0,0,0,0,1,,,,,,,,,,,,,,,,,,,,,,,,,,,,,,,,,,,,,,,,,,,,
,,,,,,,,,,,,,,,,284,1,2024-02-09_11h38.33.247,Online_SceneSrcMD_R,2020.2.10,MacIntel,60,,,,,,,,,,,,,,,,0,0,0,0,1,Empty.png,Alternative_Scale.png,p,after memorizing the scale below press 'P' to proceed.,,,,,,,,,,,,,,,,,,,,,,,,,,,,,,,,,,,
,,,,,,,,,,,,,,,,284,1,2024-02-09_11h38.33.247,Online_SceneSrcMD_R,2020.2.10,MacIntel,60,,,,,,,,s,0,8.0572,,,,,,,,,,,,,,,0,0,0,0,1,,,,,,,,,,,,,,,,,,,,,,,,,,,,,,
,,,,,,,,,,,,,,,,284,1,2024-02-09_11h38.33.247,Online_SceneSrcMD_R,2020.2.10,MacIntel,60,,,,,,,,,,,0,0,0,0,1,,,,,,,,,,,,,,,,,,,,,,,,,,,,,,,,,,,,,,,,,,,,
,,,,,,,,,,,,,,,,284,1,2024-02-09_11h38.33.247,Online_SceneSrcMD_R,2020.2.10,MacIntel,60,,,,,,,,l,1,12.7903,1,0,1,0,1,,,,,,,,,,,,,,,,,,,,,,,,,,,,,,,,,,,,,,,,,,,,
,,,,,,,,,,,,,,,,284,1,2024-02-09_11h38.33.247,Online_SceneSrcMD_R,2020.2.10,MacIntel,60,,,,,,,,,,,,,,,,0,1,1,1,1,TS01scene_Rec.png,Empty.png,l,what would you respond if you were very confident you remembered seeing this image?,,,,,,,,,,,,,,,,,,,,,,,,,,,,,,,,,,,
,,,,,,,,,,,,,,,,284,1,2024-02-09_11h38.33.247,Online_SceneSrcMD_R,2020.2.10,MacIntel,60,,,,,,,,l,0,8.303,,,,,,,,,,,,,,,0,0,0,0,1,,,,,,,,,,,,,,,,,,,,,,,,,,,,,,
,,,,,,,,,,,,,,,,284,1,2024-02-09_11h38.33.247,Online_SceneSrcMD_R,2020.2.10,MacIntel,60,,,,,,,,,,,0,0,0,0,1,,,,,,,,,,,,,,,,,,,,,,,,,,,,,,,,,,,,,,,,,,,,
,,,,,,,,,,,,,,,,284,1,2024-02-09_11h38.33.247,Online_SceneSrcMD_R,2020.2.10,MacIntel,60,,,,,,,,a,1,7.6636,1,0,1,0,1,,,,,,,,,,,,,,,,,,,,,,,,,,,,,,,,,,,,,,,,,,,,
,,,,,,,,,,,,,,,,284,1,2024-02-09_11h38.33.247,Online_SceneSrcMD_R,2020.2.10,MacIntel,60,,,,,,,,,,,,,,,,0,2,2,2,1,TS01scene_SrcRec.png,Empty.png,a,respond as if you very confidently remembered another border color around this photo.,,,,,,,,,,,,,,,,,,,,,,,,,,,,,,,,,,,
,,,,,,,,,,,,,,,,284,1,2024-02-09_11h38.33.247,Online_SceneSrcMD_R,2020.2.10,MacIntel,60,,,,,,,,a,1,8.7251,0,0,0,0,1,,,,,,,,,,,,,,,,,,,,,,,,,,,,,,,,,,,,,,,,,,,,
,,,,,,,,,,,,,,,,284,1,2024-02-09_11h38.33.247,Online_SceneSrcMD_R,2020.2.10,MacIntel,60,,,,,,,,,,,,,,,,0,3,3,3,1,TS05scene_Rec.png,Empty.png,a,what would you respond if you were very confident you did not remember seeing this image?,,,,,,,,,,,,,,,,,,,,,,,,,,,,,,,,,,,
,,,,,,,,,,,,,,,,284,1,2024-02-09_11h38.33.247,Online_SceneSrcMD_R,2020.2.10,MacIntel,60,,,,,,,,d,0,12.3531,,,,,,,,,,,,,,,0,0,0,0,1,,,,,,,,,,,,,,,,,,,,,,,,,,,,,,
,,,,,,,,,,,,,,,,284,1,2024-02-09_11h38.33.247,Online_SceneSrcMD_R,2020.2.10,MacIntel,60,,,,,,,,,,,0,0,0,0,1,,,,,,,,,,,,,,,,,,,,,,,,,,,,,,,,,,,,,,,,,,,,
,,,,,,,,,,,,,,,,284,1,2024-02-09_11h38.33.247,Online_SceneSrcMD_R,2020.2.10,MacIntel,60,,,,,,,,j,1,15.8863,1,0,1,0,1,,,,,,,,,,,,,,,,,,,,,,,,,,,,,,,,,,,,,,,,,,,,
,,,,,,,,,,,,,,,,284,1,2024-02-09_11h38.33.247,Online_SceneSrcMD_R,2020.2.10,MacIntel,60,,,,,,,,,,,,,,,,0,4,4,4,1,TS04scene_Rec.png,Empty.png,j,what would you respond if you were not confident you remembered seeing this image?,,,,,,,,,,,,,,,,,,,,,,,,,,,,,,,,,,,
,,,,,,,,,,,,,,,,284,1,2024-02-09_11h38.33.247,Online_SceneSrcMD_R,2020.2.10,MacIntel,60,,,,,,,,l,0,21.0888,,,,,,,,,,,,,,,0,0,0,0,1,,,,,,,,,,,,,,,,,,,,,,,,,,,,,,
,,,,,,,,,,,,,,,,284,1,2024-02-09_11h38.33.247,Online_SceneSrcMD_R,2020.2.10,MacIntel,60,,,,,,,,,,,0,0,0,0,1,,,,,,,,,,,,,,,,,,,,,,,,,,,,,,,,,,,,,,,,,,,,
,,,,,,,,,,,,,,,,284,1,2024-02-09_11h38.33.247,Online_SceneSrcMD_R,2020.2.10,MacIntel,60,,,,,,,,a,1,11.6296,1,0,1,0,1,,,,,,,,,,,,,,,,,,,,,,,,,,,,,,,,,,,,,,,,,,,,
,,,,,,,,,,,,,,,,284,1,2024-02-09_11h38.33.247,Online_SceneSrcMD_R,2020.2.10,MacIntel,60,,,,,,,,,,,,,,,,0,5,5,5,1,TS04scene_SrcRec.png,Empty.png,a,respond as if you very confidently remembered another border color around this photo.,,,,,,,,,,,,,,,,,,,,,,,,,,,,,,,,,,,
,,,,,,,,,,,,,,,,284,1,2024-02-09_11h38.33.247,Online_SceneSrcMD_R,2020.2.10,MacIntel,60,,,,,,,,s,1,7.3099,0,0,0,0,1,,,,,,,,,,,,,,,,,,,,,,,,,,,,,,,,,,,,,,,,,,,,
,,,,,,,,,,,,,,,,284,1,2024-02-09_11h38.33.247,Online_SceneSrcMD_R,2020.2.10,MacIntel,60,,,,,,,,,,,,,,,,0,6,6,6,1,TS08scene_Rec.png,Empty.png,s,what would you respond if you were somewhat confident you did not remember seeing this image?,,,,,,,,,,,,,,,,,,,,,,,,,,,,,,,,,,,
,,,,,,,,,,,,,,,,284,1,2024-02-09_11h38.33.247,Online_SceneSrcMD_R,2020.2.10,MacIntel,60,,,,,,,,k,1,7.1905,0,0,0,0,1,,,,,,,,,,,,,,,,,,,,,,,,,,,,,,,,,,,,,,,,,,,,
,,,,,,,,,,,,,,,,284,1,2024-02-09_11h38.33.247,Online_SceneSrcMD_R,2020.2.10,MacIntel,60,,,,,,,,,,,,,,,,0,7,7,7,1,TS02scene_Rec.png,Empty.png,k,what would you respond if you were somewhat confident you remembered seeing this image?,,,,,,,,,,,,,,,,,,,,,,,,,,,,,,,,,,,
,,,,,,,,,,,,,,,,284,1,2024-02-09_11h38.33.247,Online_SceneSrcMD_R,2020.2.10,MacIntel,60,,,,,,,,s,1,10.6612,0,0,0,0,1,,,,,,,,,,,,,,,,,,,,,,,,,,,,,,,,,,,,,,,,,,,,
,,,,,,,,,,,,,,,,284,1,2024-02-09_11h38.33.247,Online_SceneSrcMD_R,2020.2.10,MacIntel,60,,,,,,,,,,,,,,,,0,8,8,8,1,TS02scene_SrcRec.png,Empty.png,s,respond as if you somewhat confidently remembered another border color around this photo.,,,,,,,,,,,,,,,,,,,,,,,,,,,,,,,,,,,
,,,,,,,,,,,,,,,,284,1,2024-02-09_11h38.33.247,Online_SceneSrcMD_R,2020.2.10,MacIntel,60,,,,,,,,d,1,10.0311,0,0,0,0,1,,,,,,,,,,,,,,,,,,,,,,,,,,,,,,,,,,,,,,,,,,,,
,,,,,,,,,,,,,,,,284,1,2024-02-09_11h38.33.247,Online_SceneSrcMD_R,2020.2.10,MacIntel,60,,,,,,,,,,,,,,,,0,9,9,9,1,TS07scene_Rec.png,Empty.png,d,what would you respond if you were not confident you did not remember seeing this image?,,,,,,,,,,,,,,,,,,,,,,,,,,,,,,,,,,,
,,,,,,,,,,,,,,,,284,1,2024-02-09_11h38.33.247,Online_SceneSrcMD_R,2020.2.10,MacIntel,60,,,,,,,,k,1,10.0949,0,0,0,0,1,,,,,,,,,,,,,,,,,,,,,,,,,,,,,,,,,,,,,,,,,,,,
,,,,,,,,,,,,,,,,284,1,2024-02-09_11h38.33.247,Online_SceneSrcMD_R,2020.2.10,MacIntel,60,,,,,,,,,,,,,,,,0,10,10,10,1,TS03scene_SrcRec.png,Empty.png,k,respond as if you somewhat confidently remembered a yellow border around this photo.,,,,,,,,,,,,,,,,,,,,,,,,,,,,,,,,,,,
,,,,,,,,,,,,,,,,284,1,2024-02-09_11h38.33.247,Online_SceneSrcMD_R,2020.2.10,MacIntel,60,,,,,,,,,,,,,,,,,,,,,,,,,,,,,,k,10.7012,1,2,1,a,10.7677,0,3,0,0,0,0,1,,,,,,,,,,,,,,,,
,,,,,,,,,,,,,,,,284,1,2024-02-09_11h38.33.247,Online_SceneSrcMD_R,2020.2.10,MacIntel,60,,,,,,,,,,,,,,,,,,,,,,,,,,,,,,,,,,,,,,,,,,,,0,0,0,0,1,N2-8280_Rec.png,1,N2-8280Real.png,1,,,,,,,
,,,,,,,,,,,,,,,,284,1,2024-02-09_11h38.33.247,Online_SceneSrcMD_R,2020.2.10,MacIntel,60,,,,,,,,,,,,,,,,,,,,,,,,,,,,,,l,8.5935,1,3,1,a,9.031,0,3,0,0,0,0,1,,,,,,,,,,,,,,,,
,,,,,,,,,,,,,,,,284,1,2024-02-09_11h38.33.247,Online_SceneSrcMD_R,2020.2.10,MacIntel,60,,,,,,,,,,,,,,,,,,,,,,,,,,,,,,,,,,,,,,,,,,,,0,1,1,1,1,N2-2499_Rec.png,1,N2-2499_SrcRec.png,0,,,,,,,
,,,,,,,,,,,,,,,,284,1,2024-02-09_11h38.33.247,Online_SceneSrcMD_R,2020.2.10,MacIntel,60,,,,,,,,,,,,,,,,,,,,,,,,,,,,,,k,12.7813,1,2,1,j,12.2198,1,1,0,0,0,0,1,,,,,,,,,,,,,,,,
,,,,,,,,,,,,,,,,284,1,2024-02-09_11h38.33.247,Online_SceneSrcMD_R,2020.2.10,MacIntel,60,,,,,,,,,,,,,,,,,,,,,,,,,,,,,,,,,,,,,,,,,,,,0,2,2,2,1,E2-3069_Rec.png,1,E2-3069Real.png,1,,,,,,,
,,,,,,,,,,,,,,,,284,1,2024-02-09_11h38.33.247,Online_SceneSrcMD_R,2020.2.10,MacIntel,60,,,,,,,,,,,,,,,,,,,,,,,,,,,,,,s,14.7646,0,2,0,,,,,,,,,,0,3,3,3,1,E1-6244_Rec.png,0,E1-6244_SrcRec.png,0,,,,,,,
,,,,,,,,,,,,,,,,284,1,2024-02-09_11h38.33.247,Online_SceneSrcMD_R,2020.2.10,MacIntel,60,,,,,,,,,,,,,,,,,,,,,,,,,,,,,,s,14.2277,0,2,0,,,,,,,,,,0,4,4,4,1,N1-7495_Rec.png,0,N1-7495Real.png,1,,,,,,,
,,,,,,,,,,,,,,,,284,1,2024-02-09_11h38.33.247,Online_SceneSrcMD_R,2020.2.10,MacIntel,60,,,,,,,,,,,,,,,,,,,,,,,,,,,,,,l,9.4124,1,3,1,j,8.2966,1,1,0,0,0,0,1,,,,,,,,,,,,,,,,
,,,,,,,,,,,,,,,,284,1,2024-02-09_11h38.33.247,Online_SceneSrcMD_R,2020.2.10,MacIntel,60,,,,,,,,,,,,,,,,,,,,,,,,,,,,,,,,,,,,,,,,,,,,0,5,5,5,1,E1-6212_Rec.png,0,E1-6212Real.png,1,,,,,,,
,,,,,,,,,,,,,,,,284,1,2024-02-09_11h38.33.247,Online_SceneSrcMD_R,2020.2.10,MacIntel,60,,,,,,,,,,,,,,,,,,,,,,,,,,,,,,d,10.2446,0,1,0,,,,,,,,,,0,6,6,6,1,N1-8460_Rec.png,0,N1-8460_SrcRec.png,0,,,,,,,
,,,,,,,,,,,,,,,,284,1,2024-02-09_11h38.33.247,Online_SceneSrcMD_R,2020.2.10,MacIntel,60,,,,,,,,,,,,,,,,,,,,,,,,,,,,,,l,7.1967,1,3,1,d,15.593,0,1,0,0,0,0,1,,,,,,,,,,,,,,,,
,,,,,,,,,,,,,,,,284,1,2024-02-09_11h38.33.247,Online_SceneSrcMD_R,2020.2.10,MacIntel,60,,,,,,,,,,,,,,,,,,,,,,,,,,,,,,,,,,,,,,,,,,,,0,7,7,7,1,E2-7380_Rec.png,1,E2-7380_SrcRec.png,0,,,,,,,
,,,,,,,,,,,,,,,,284,1,2024-02-09_11h38.33.247,Online_SceneSrcMD_R,2020.2.10,MacIntel,60,,,,,,,,,,,,,,,,,,,,,,,,,,,,,,a,9.4645,0,3,0,,,,,,,,,,0,8,8,8,1,N1-9210_Rec.png,0,N1-9210Real.png,1,,,,,,,
,,,,,,,,,,,,,,,,284,1,2024-02-09_11h38.33.247,Online_SceneSrcMD_R,2020.2.10,MacIntel,60,,,,,,,,,,,,,,,,,,,,,,,,,,,,,,a,7.6933,0,3,0,,,,,,,,,,0,9,9,9,1,N1-1121_Rec.png,0,N1-1121_SrcRec.png,0,,,,,,,
,,,,,,,,,,,,,,,,284,1,2024-02-09_11h38.33.247,Online_SceneSrcMD_R,2020.2.10,MacIntel,60,,,,,,,,,,,,,,,,,,,,,,,,,,,,,,l,11.99,1,3,1,k,12.2522,1,2,0,0,0,0,1,,,,,,,,,,,,,,,,
,,,,,,,,,,,,,,,,284,1,2024-02-09_11h38.33.247,Online_SceneSrcMD_R,2020.2.10,MacIntel,60,,,,,,,,,,,,,,,,,,,,,,,,,,,,,,,,,,,,,,,,,,,,0,10,10,10,1,E2-9920_Rec.png,1,E2-9920Real.png,1,,,,,,,
,,,,,,,,,,,,,,,,284,1,2024-02-09_11h38.33.247,Online_SceneSrcMD_R,2020.2.10,MacIntel,60,,,,,,,,,,,,,,,,,,,,,,,,,,,,,,k,7.9219,1,2,1,s,14.5873,0,2,0,0,0,0,1,,,,,,,,,,,,,,,,
,,,,,,,,,,,,,,,,284,1,2024-02-09_11h38.33.247,Online_SceneSrcMD_R,2020.2.10,MacIntel,60,,,,,,,,,,,,,,,,,,,,,,,,,,,,,,,,,,,,,,,,,,,,0,11,11,11,1,E1-6571_Rec.png,0,E1-6571_SrcRec.png,0,,,,,,,
,,,,,,,,,,,,,,,,284,1,2024-02-09_11h38.33.247,Online_SceneSrcMD_R,2020.2.10,MacIntel,60,,,,,,,,,,,,,,,,,,,,,,,,,,,,,,l,6.896,1,3,1,j,9.8841,1,1,0,0,0,0,1,,,,,,,,,,,,,,,,
,,,,,,,,,,,,,,,,284,1,2024-02-09_11h38.33.247,Online_SceneSrcMD_R,2020.2.10,MacIntel,60,,,,,,,,,,,,,,,,,,,,,,,,,,,,,,,,,,,,,,,,,,,,0,12,12,12,1,E2-6540_Rec.png,1,E2-6540Real.png,1,,,,,,,
,,,,,,,,,,,,,,,,284,1,2024-02-09_11h38.33.247,Online_SceneSrcMD_R,2020.2.10,MacIntel,60,,,,,,,,,,,,,,,,,,,,,,,,,,,,,,k,6.3262,1,2,1,d,6.377,0,1,0,0,0,0,1,,,,,,,,,,,,,,,,
,,,,,,,,,,,,,,,,284,1,2024-02-09_11h38.33.247,Online_SceneSrcMD_R,2020.2.10,MacIntel,60,,,,,,,,,,,,,,,,,,,,,,,,,,,,,,,,,,,,,,,,,,,,0,13,13,13,1,N2-5875_Rec.png,1,N2-5875Real.png,1,,,,,,,
,,,,,,,,,,,,,,,,284,1,2024-02-09_11h38.33.247,Online_SceneSrcMD_R,2020.2.10,MacIntel,60,,,,,,,,,,,,,,,,,,,,,,,,,,,,,,s,9.0214,0,2,0,,,,,,,,,,0,14,14,14,1,E2-9500_Rec.png,1,E2-9500_SrcRec.png,0,,,,,,,
,,,,,,,,,,,,,,,,284,1,2024-02-09_11h38.33.247,Online_SceneSrcMD_R,2020.2.10,MacIntel,60,,,,,,,,,,,,,,,,,,,,,,,,,,,,,,l,6.3264,1,3,1,j,11.3194,1,1,0,0,0,0,1,,,,,,,,,,,,,,,,
,,,,,,,,,,,,,,,,284,1,2024-02-09_11h38.33.247,Online_SceneSrcMD_R,2020.2.10,MacIntel,60,,,,,,,,,,,,,,,,,,,,,,,,,,,,,,,,,,,,,,,,,,,,0,15,15,15,1,N2-1910_Rec.png,1,N2-1910_SrcRec.png,0,,,,,,,
,,,,,,,,,,,,,,,,284,1,2024-02-09_11h38.33.247,Online_SceneSrcMD_R,2020.2.10,MacIntel,60,,,,,,,,,,,,,,,,,,,,,,,,,,,,,,k,9.9989,1,2,1,s,13.2157,0,2,0,0,0,0,1,,,,,,,,,,,,,,,,
,,,,,,,,,,,,,,,,284,1,2024-02-09_11h38.33.247,Online_SceneSrcMD_R,2020.2.10,MacIntel,60,,,,,,,,,,,,,,,,,,,,,,,,,,,,,,,,,,,,,,,,,,,,0,16,16,16,1,N1-1670_Rec.png,0,N1-1670Real.png,1,,,,,,,
,,,,,,,,,,,,,,,,284,1,2024-02-09_11h38.33.247,Online_SceneSrcMD_R,2020.2.10,MacIntel,60,,,,,,,,,,,,,,,,,,,,,,,,,,,,,,s,7.7037,0,2,0,,,,,,,,,,0,17,17,17,1,E1-3220_Rec.png,0,E1-3220Real.png,1,,,,,,,
,,,,,,,,,,,,,,,,284,1,2024-02-09_11h38.33.247,Online_SceneSrcMD_R,2020.2.10,MacIntel,60,,,,,,,,,,,,,,,,,,,,,,,,,,,,,,d,7.7966,0,1,0,,,,,,,,,,0,18,18,18,1,E1-9561_Rec.png,0,E1-9561_SrcRec.png,0,,,,,,,
,,,,,,,,,,,,,,,,284,1,2024-02-09_11h38.33.247,Online_SceneSrcMD_R,2020.2.10,MacIntel,60,,,,,,,,,,,,,,,,,,,,,,,,,,,,,,d,12.1795,0,1,0,,,,,,,,,,0,19,19,19,1,N2-9913_Rec.png,1,N2-9913_SrcRec.png,0,,,,,,,
,,,,,,,,,,,,,,,,284,1,2024-02-09_11h38.33.247,Online_SceneSrcMD_R,2020.2.10,MacIntel,60,,,,,,,,,,,,,,,,,,,,,,,,,,,,,,,,,,,,,,,,,,,,,,,,,,,,,0,0,0,0,1,BlockSeven.csv,Src_BlockOne.csv
,,,,,,,,,,,,,,,,284,1,2024-02-09_11h38.33.247,Online_SceneSrcMD_R,2020.2.10,MacIntel,60,,,,,,,,,,,,,,,,,,,,,,,,,,,,,,j,11.4999,1,1,1,j,9.1237,1,1,0,0,0,0,1,,,,,,,,,,,,,,,,
,,,,,,,,,,,,,,,,284,1,2024-02-09_11h38.33.247,Online_SceneSrcMD_R,2020.2.10,MacIntel,60,,,,,,,,,,,,,,,,,,,,,,,,,,,,,,,,,,,,,,,,,,,,0,0,0,0,1,N2-7600_Rec.png,1,N2-7600Real.png,1,,,,,,,
,,,,,,,,,,,,,,,,284,1,2024-02-09_11h38.33.247,Online_SceneSrcMD_R,2020.2.10,MacIntel,60,,,,,,,,,,,,,,,,,,,,,,,,,,,,,,s,7.1596,0,2,0,,,,,,,,,,0,1,1,1,1,N1-2383_Rec.png,0,N1-2383_SrcRec.png,0,,,,,,,
,,,,,,,,,,,,,,,,284,1,2024-02-09_11h38.33.247,Online_SceneSrcMD_R,2020.2.10,MacIntel,60,,,,,,,,,,,,,,,,,,,,,,,,,,,,,,l,6.3152,1,3,1,s,8.3872,0,2,0,0,0,0,1,,,,,,,,,,,,,,,,
,,,,,,,,,,,,,,,,284,1,2024-02-09_11h38.33.247,Online_SceneSrcMD_R,2020.2.10,MacIntel,60,,,,,,,,,,,,,,,,,,,,,,,,,,,,,,,,,,,,,,,,,,,,0,2,2,2,1,E2-1932_Rec.png,1,E2-1932Real.png,1,,,,,,,
,,,,,,,,,,,,,,,,284,1,2024-02-09_11h38.33.247,Online_SceneSrcMD_R,2020.2.10,MacIntel,60,,,,,,,,,,,,,,,,,,,,,,,,,,,,,,s,6.5738,0,2,0,,,,,,,,,,0,3,3,3,1,N1-5731_Rec.png,0,N1-5731Real.png,1,,,,,,,
,,,,,,,,,,,,,,,,284,1,2024-02-09_11h38.33.247,Online_SceneSrcMD_R,2020.2.10,MacIntel,60,,,,,,,,,,,,,,,,,,,,,,,,,,,,,,l,7.5627,1,3,1,s,5.5173,0,2,0,0,0,0,1,,,,,,,,,,,,,,,,
,,,,,,,,,,,,,,,,284,1,2024-02-09_11h38.33.247,Online_SceneSrcMD_R,2020.2.10,MacIntel,60,,,,,,,,,,,,,,,,,,,,,,,,,,,,,,,,,,,,,,,,,,,,0,4,4,4,1,E2-3261_Rec.png,1,E2-3261_SrcRec.png,0,,,,,,,
,,,,,,,,,,,,,,,,284,1,2024-02-09_11h38.33.247,Online_SceneSrcMD_R,2020.2.10,MacIntel,60,,,,,,,,,,,,,,,,,,,,,,,,,,,,,,j,18.0761,1,1,1,d,8.8799,0,1,0,0,0,0,1,,,,,,,,,,,,,,,,
,,,,,,,,,,,,,,,,284,1,2024-02-09_11h38.33.247,Online_SceneSrcMD_R,2020.2.10,MacIntel,60,,,,,,,,,,,,,,,,,,,,,,,,,,,,,,,,,,,,,,,,,,,,0,5,5,5,1,E1-3015_Rec.png,0,E1-3015Real.png,1,,,,,,,
,,,,,,,,,,,,,,,,284,1,2024-02-09_11h38.33.247,Online_SceneSrcMD_R,2020.2.10,MacIntel,60,,,,,,,,,,,,,,,,,,,,,,,,,,,,,,s,9.2855,0,2,0,,,,,,,,,,0,6,6,6,1,E1-9252_Rec.png,0,E1-9252_SrcRec.png,0,,,,,,,
,,,,,,,,,,,,,,,,284,1,2024-02-09_11h38.33.247,Online_SceneSrcMD_R,2020.2.10,MacIntel,60,,,,,,,,,,,,,,,,,,,,,,,,,,,,,,l,5.4209,1,3,1,k,7.3487,1,2,0,0,0,0,1,,,,,,,,,,,,,,,,
,,,,,,,,,,,,,,,,284,1,2024-02-09_11h38.33.247,Online_SceneSrcMD_R,2020.2.10,MacIntel,60,,,,,,,,,,,,,,,,,,,,,,,,,,,,,,,,,,,,,,,,,,,,0,7,7,7,1,N2-4603_Rec.png,1,N2-4603_SrcRec.png,0,,,,,,,
,,,,,,,,,,,,,,,,284,1,2024-02-09_11h38.33.247,Online_SceneSrcMD_R,2020.2.10,MacIntel,60,,,,,,,,,,,,,,,,,,,,,,,,,,,,,,l,5.7581,1,3,1,k,10.6922,1,2,0,0,0,0,1,,,,,,,,,,,,,,,,
,,,,,,,,,,,,,,,,284,1,2024-02-09_11h38.33.247,Online_SceneSrcMD_R,2020.2.10,MacIntel,60,,,,,,,,,,,,,,,,,,,,,,,,,,,,,,,,,,,,,,,,,,,,0,8,8,8,1,E1-9911_Rec.png,0,E1-9911Real.png,1,,,,,,,
,,,,,,,,,,,,,,,,284,1,2024-02-09_11h38.33.247,Online_SceneSrcMD_R,2020.2.10,MacIntel,60,,,,,,,,,,,,,,,,,,,,,,,,,,,,,,k,8.4246,1,2,1,s,16.7281,0,2,0,0,0,0,1,,,,,,,,,,,,,,,,
,,,,,,,,,,,,,,,,284,1,2024-02-09_11h38.33.247,Online_SceneSrcMD_R,2020.2.10,MacIntel,60,,,,,,,,,,,,,,,,,,,,,,,,,,,,,,,,,,,,,,,,,,,,0,9,9,9,1,E2-9265_Rec.png,1,E2-9265_SrcRec.png,0,,,,,,,
,,,,,,,,,,,,,,,,284,1,2024-02-09_11h38.33.247,Online_SceneSrcMD_R,2020.2.10,MacIntel,60,,,,,,,,,,,,,,,,,,,,,,,,,,,,,,a,8.4107,0,3,0,,,,,,,,,,0,10,10,10,1,N1-2575_Rec.png,0,N1-2575Real.png,1,,,,,,,
,,,,,,,,,,,,,,,,284,1,2024-02-09_11h38.33.247,Online_SceneSrcMD_R,2020.2.10,MacIntel,60,,,,,,,,,,,,,,,,,,,,,,,,,,,,,,j,10.1649,1,1,1,j,8.0395,1,1,0,0,0,0,1,,,,,,,,,,,,,,,,
,,,,,,,,,,,,,,,,284,1,2024-02-09_11h38.33.247,Online_SceneSrcMD_R,2020.2.10,MacIntel,60,,,,,,,,,,,,,,,,,,,,,,,,,,,,,,,,,,,,,,,,,,,,0,11,11,11,1,N2-1600_Rec.png,1,N2-1600_SrcRec.png,0,,,,,,,
,,,,,,,,,,,,,,,,284,1,2024-02-09_11h38.33.247,Online_SceneSrcMD_R,2020.2.10,MacIntel,60,,,,,,,,,,,,,,,,,,,,,,,,,,,,,,a,8.1328,0,3,0,,,,,,,,,,0,12,12,12,1,E2-6415_Rec.png,1,E2-6415Real.png,1,,,,,,,
,,,,,,,,,,,,,,,,284,1,2024-02-09_11h38.33.247,Online_SceneSrcMD_R,2020.2.10,MacIntel,60,,,,,,,,,,,,,,,,,,,,,,,,,,,,,,l,3.8238,1,3,1,s,7.0926,0,2,0,0,0,0,1,,,,,,,,,,,,,,,,
,,,,,,,,,,,,,,,,284,1,2024-02-09_11h38.33.247,Online_SceneSrcMD_R,2020.2.10,MacIntel,60,,,,,,,,,,,,,,,,,,,,,,,,,,,,,,,,,,,,,,,,,,,,0,13,13,13,1,N2-8465_Rec.png,1,N2-8465Real.png,1,,,,,,,
,,,,,,,,,,,,,,,,284,1,2024-02-09_11h38.33.247,Online_SceneSrcMD_R,2020.2.10,MacIntel,60,,,,,,,,,,,,,,,,,,,,,,,,,,,,,,s,9.7953,0,2,0,,,,,,,,,,0,14,14,14,1,N1-2500_Rec.png,0,N1-2500_SrcRec.png,0,,,,,,,
,,,,,,,,,,,,,,,,284,1,2024-02-09_11h38.33.247,Online_SceneSrcMD_R,2020.2.10,MacIntel,60,,,,,,,,,,,,,,,,,,,,,,,,,,,,,,s,3.7647,0,2,0,,,,,,,,,,0,15,15,15,1,E1-3280_Rec.png,0,E1-3280_SrcRec.png,0,,,,,,,
,,,,,,,,,,,,,,,,284,1,2024-02-09_11h38.33.247,Online_SceneSrcMD_R,2020.2.10,MacIntel,60,,,,,,,,,,,,,,,,,,,,,,,,,,,,,,j,7.917,1,1,1,k,5.7485,1,2,0,0,0,0,1,,,,,,,,,,,,,,,,
,,,,,,,,,,,,,,,,284,1,2024-02-09_11h38.33.247,Online_SceneSrcMD_R,2020.2.10,MacIntel,60,,,,,,,,,,,,,,,,,,,,,,,,,,,,,,,,,,,,,,,,,,,,0,16,16,16,1,N1-1812_Rec.png,0,N1-1812Real.png,1,,,,,,,
,,,,,,,,,,,,,,,,284,1,2024-02-09_11h38.33.247,Online_SceneSrcMD_R,2020.2.10,MacIntel,60,,,,,,,,,,,,,,,,,,,,,,,,,,,,,,l,10.35,1,3,1,d,5.9833,0,1,0,0,0,0,1,,,,,,,,,,,,,,,,
,,,,,,,,,,,,,,,,284,1,2024-02-09_11h38.33.247,Online_SceneSrcMD_R,2020.2.10,MacIntel,60,,,,,,,,,,,,,,,,,,,,,,,,,,,,,,,,,,,,,,,,,,,,0,17,17,17,1,E2-3350_Rec.png,1,E2-3350Real.png,1,,,,,,,
,,,,,,,,,,,,,,,,284,1,2024-02-09_11h38.33.247,Online_SceneSrcMD_R,2020.2.10,MacIntel,60,,,,,,,,,,,,,,,,,,,,,,,,,,,,,,j,10.3555,1,1,1,s,15.1387,0,2,0,0,0,0,1,,,,,,,,,,,,,,,,
,,,,,,,,,,,,,,,,284,1,2024-02-09_11h38.33.247,Online_SceneSrcMD_R,2020.2.10,MacIntel,60,,,,,,,,,,,,,,,,,,,,,,,,,,,,,,,,,,,,,,,,,,,,0,18,18,18,1,N2-2840_Rec.png,1,N2-2840_SrcRec.png,0,,,,,,,
,,,,,,,,,,,,,,,,284,1,2024-02-09_11h38.33.247,Online_SceneSrcMD_R,2020.2.10,MacIntel,60,,,,,,,,,,,,,,,,,,,,,,,,,,,,,,d,7.5805,0,1,0,,,,,,,,,,0,19,19,19,1,E1-9254_Rec.png,0,E1-9254_SrcRec.png,0,,,,,,,
,,,,,,,,,,,,,,,,284,1,2024-02-09_11h38.33.247,Online_SceneSrcMD_R,2020.2.10,MacIntel,60,,,,,,,,,,,,,,,,,,,,,,,,,,,,,,,,,,,,,,,,,,,,,,,,,,,,,0,1,1,1,1,BlockEight.csv,Src_BlockTwo.csv
,,,,,,,,,,,,,,,,284,1,2024-02-09_11h38.33.247,Online_SceneSrcMD_R,2020.2.10,MacIntel,60,,,,,,,,,,,,,,,,,,,,,,,,,,,,,,s,5.765,0,2,0,,,,,,,,,,0,0,0,0,1,E1-1310_Rec.png,0,E1-1310Real.png,1,,,,,,,
,,,,,,,,,,,,,,,,284,1,2024-02-09_11h38.33.247,Online_SceneSrcMD_R,2020.2.10,MacIntel,60,,,,,,,,,,,,,,,,,,,,,,,,,,,,,,s,2.9476,0,2,0,,,,,,,,,,0,1,1,1,1,E1-2800_Rec.png,0,E1-2800_SrcRec.png,0,,,,,,,
,,,,,,,,,,,,,,,,284,1,2024-02-09_11h38.33.247,Online_SceneSrcMD_R,2020.2.10,MacIntel,60,,,,,,,,,,,,,,,,,,,,,,,,,,,,,,j,5.9528,1,1,1,d,6.2281,0,1,0,0,0,0,1,,,,,,,,,,,,,,,,
,,,,,,,,,,,,,,,,284,1,2024-02-09_11h38.33.247,Online_SceneSrcMD_R,2020.2.10,MacIntel,60,,,,,,,,,,,,,,,,,,,,,,,,,,,,,,,,,,,,,,,,,,,,0,2,2,2,1,E1-2352_2_Rec.png,0,E1-2352_2Real.png,1,,,,,,,
,,,,,,,,,,,,,,,,284,1,2024-02-09_11h38.33.247,Online_SceneSrcMD_R,2020.2.10,MacIntel,60,,,,,,,,,,,,,,,,,,,,,,,,,,,,,,j,4.4309,1,1,1,d,4.76,0,1,0,0,0,0,1,,,,,,,,,,,,,,,,
,,,,,,,,,,,,,,,,284,1,2024-02-09_11h38.33.247,Online_SceneSrcMD_R,2020.2.10,MacIntel,60,,,,,,,,,,,,,,,,,,,,,,,,,,,,,,,,,,,,,,,,,,,,0,3,3,3,1,N2-8160_Rec.png,1,N2-8160Real.png,1,,,,,,,
,,,,,,,,,,,,,,,,284,1,2024-02-09_11h38.33.247,Online_SceneSrcMD_R,2020.2.10,MacIntel,60,,,,,,,,,,,,,,,,,,,,,,,,,,,,,,s,7.4335,0,2,0,,,,,,,,,,0,4,4,4,1,N1-2190_Rec.png,0,N1-2190_SrcRec.png,0,,,,,,,
,,,,,,,,,,,,,,,,284,1,2024-02-09_11h38.33.247,Online_SceneSrcMD_R,2020.2.10,MacIntel,60,,,,,,,,,,,,,,,,,,,,,,,,,,,,,,d,7.065,0,1,0,,,,,,,,,,0,5,5,5,1,E1-3550_Rec.png,0,E1-3550_SrcRec.png,0,,,,,,,
,,,,,,,,,,,,,,,,284,1,2024-02-09_11h38.33.247,Online_SceneSrcMD_R,2020.2.10,MacIntel,60,,,,,,,,,,,,,,,,,,,,,,,,,,,,,,l,8.3816,1,3,1,d,5.2338,0,1,0,0,0,0,1,,,,,,,,,,,,,,,,
,,,,,,,,,,,,,,,,284,1,2024-02-09_11h38.33.247,Online_SceneSrcMD_R,2020.2.10,MacIntel,60,,,,,,,,,,,,,,,,,,,,,,,,,,,,,,,,,,,,,,,,,,,,0,6,6,6,1,N2-5395_Rec.png,1,N2-5395Real.png,1,,,,,,,
,,,,,,,,,,,,,,,,284,1,2024-02-09_11h38.33.247,Online_SceneSrcMD_R,2020.2.10,MacIntel,60,,,,,,,,,,,,,,,,,,,,,,,,,,,,,,d,7.665,0,1,0,,,,,,,,,,0,7,7,7,1,N1-7503_Rec.png,0,N1-7503_SrcRec.png,0,,,,,,,
,,,,,,,,,,,,,,,,284,1,2024-02-09_11h38.33.247,Online_SceneSrcMD_R,2020.2.10,MacIntel,60,,,,,,,,,,,,,,,,,,,,,,,,,,,,,,j,6.0932,1,1,1,j,8.6998,1,1,0,0,0,0,1,,,,,,,,,,,,,,,,
,,,,,,,,,,,,,,,,284,1,2024-02-09_11h38.33.247,Online_SceneSrcMD_R,2020.2.10,MacIntel,60,,,,,,,,,,,,,,,,,,,,,,,,,,,,,,,,,,,,,,,,,,,,0,8,8,8,1,N1-2597_Rec.png,0,N1-2597Real.png,1,,,,,,,
,,,,,,,,,,,,,,,,284,1,2024-02-09_11h38.33.247,Online_SceneSrcMD_R,2020.2.10,MacIntel,60,,,,,,,,,,,,,,,,,,,,,,,,,,,,,,l,6.8336,1,3,1,d,16.2741,0,1,0,0,0,0,1,,,,,,,,,,,,,,,,
,,,,,,,,,,,,,,,,284,1,2024-02-09_11h38.33.247,Online_SceneSrcMD_R,2020.2.10,MacIntel,60,,,,,,,,,,,,,,,,,,,,,,,,,,,,,,,,,,,,,,,,,,,,0,9,9,9,1,E2-9140_Rec.png,1,E2-9140Real.png,1,,,,,,,
,,,,,,,,,,,,,,,,284,1,2024-02-09_11h38.33.247,Online_SceneSrcMD_R,2020.2.10,MacIntel,60,,,,,,,,,,,,,,,,,,,,,,,,,,,,,,k,8.4638,1,2,1,d,10.8004,0,1,0,0,0,0,1,,,,,,,,,,,,,,,,
,,,,,,,,,,,,,,,,284,1,2024-02-09_11h38.33.247,Online_SceneSrcMD_R,2020.2.10,MacIntel,60,,,,,,,,,,,,,,,,,,,,,,,,,,,,,,,,,,,,,,,,,,,,0,10,10,10,1,E1-3160_Rec.png,0,E1-3160_SrcRec.png,0,,,,,,,
,,,,,,,,,,,,,,,,284,1,2024-02-09_11h38.33.247,Online_SceneSrcMD_R,2020.2.10,MacIntel,60,,,,,,,,,,,,,,,,,,,,,,,,,,,,,,j,9.3861,1,1,1,s,5.7317,0,2,0,0,0,0,1,,,,,,,,,,,,,,,,
,,,,,,,,,,,,,,,,284,1,2024-02-09_11h38.33.247,Online_SceneSrcMD_R,2020.2.10,MacIntel,60,,,,,,,,,,,,,,,,,,,,,,,,,,,,,,,,,,,,,,,,,,,,0,11,11,11,1,N1-5471_Rec.png,0,N1-5471_SrcRec.png,0,,,,,,,
,,,,,,,,,,,,,,,,284,1,2024-02-09_11h38.33.247,Online_SceneSrcMD_R,2020.2.10,MacIntel,60,,,,,,,,,,,,,,,,,,,,,,,,,,,,,,d,8.6715,0,1,0,,,,,,,,,,0,12,12,12,1,N1-4605_Rec.png,0,N1-4605Real.png,1,,,,,,,
,,,,,,,,,,,,,,,,284,1,2024-02-09_11h38.33.247,Online_SceneSrcMD_R,2020.2.10,MacIntel,60,,,,,,,,,,,,,,,,,,,,,,,,,,,,,,k,4.8969,1,2,1,s,6.3249,0,2,0,0,0,0,1,,,,,,,,,,,,,,,,
,,,,,,,,,,,,,,,,284,1,2024-02-09_11h38.33.247,Online_SceneSrcMD_R,2020.2.10,MacIntel,60,,,,,,,,,,,,,,,,,,,,,,,,,,,,,,,,,,,,,,,,,,,,0,13,13,13,1,N2-2221_Rec.png,1,N2-2221_SrcRec.png,0,,,,,,,
,,,,,,,,,,,,,,,,284,1,2024-02-09_11h38.33.247,Online_SceneSrcMD_R,2020.2.10,MacIntel,60,,,,,,,,,,,,,,,,,,,,,,,,,,,,,,l,7.744,1,3,1,d,7.9801,0,1,0,0,0,0,1,,,,,,,,,,,,,,,,
,,,,,,,,,,,,,,,,284,1,2024-02-09_11h38.33.247,Online_SceneSrcMD_R,2020.2.10,MacIntel,60,,,,,,,,,,,,,,,,,,,,,,,,,,,,,,,,,,,,,,,,,,,,0,14,14,14,1,E2-3400_Rec.png,1,E2-3400Real.png,1,,,,,,,
,,,,,,,,,,,,,,,,284,1,2024-02-09_11h38.33.247,Online_SceneSrcMD_R,2020.2.10,MacIntel,60,,,,,,,,,,,,,,,,,,,,,,,,,,,,,,l,6.698,1,3,1,j,9.6193,1,1,0,0,0,0,1,,,,,,,,,,,,,,,,
,,,,,,,,,,,,,,,,284,1,2024-02-09_11h38.33.247,Online_SceneSrcMD_R,2020.2.10,MacIntel,60,,,,,,,,,,,,,,,,,,,,,,,,,,,,,,,,,,,,,,,,,,,,0,15,15,15,1,N2-7546_Rec.png,1,N2-7546Real.png,1,,,,,,,
,,,,,,,,,,,,,,,,284,1,2024-02-09_11h38.33.247,Online_SceneSrcMD_R,2020.2.10,MacIntel,60,,,,,,,,,,,,,,,,,,,,,,,,,,,,,,l,4.4935,1,3,1,s,3.5784,0,2,0,0,0,0,1,,,,,,,,,,,,,,,,
,,,,,,,,,,,,,,,,284,1,2024-02-09_11h38.33.247,Online_SceneSrcMD_R,2020.2.10,MacIntel,60,,,,,,,,,,,,,,,,,,,,,,,,,,,,,,,,,,,,,,,,,,,,0,16,16,16,1,E2-3500_Rec.png,1,E2-3500_SrcRec.png,0,,,,,,,
,,,,,,,,,,,,,,,,284,1,2024-02-09_11h38.33.247,Online_SceneSrcMD_R,2020.2.10,MacIntel,60,,,,,,,,,,,,,,,,,,,,,,,,,,,,,,j,7.1712,1,1,1,j,7.3824,1,1,0,0,0,0,1,,,,,,,,,,,,,,,,
,,,,,,,,,,,,,,,,284,1,2024-02-09_11h38.33.247,Online_SceneSrcMD_R,2020.2.10,MacIntel,60,,,,,,,,,,,,,,,,,,,,,,,,,,,,,,,,,,,,,,,,,,,,0,17,17,17,1,N2-2518_Rec.png,1,N2-2518_SrcRec.png,0,,,,,,,
,,,,,,,,,,,,,,,,284,1,2024-02-09_11h38.33.247,Online_SceneSrcMD_R,2020.2.10,MacIntel,60,,,,,,,,,,,,,,,,,,,,,,,,,,,,,,l,6.2454,1,3,1,d,5.7532,0,1,0,0,0,0,1,,,,,,,,,,,,,,,,
,,,,,,,,,,,,,,,,284,1,2024-02-09_11h38.33.247,Online_SceneSrcMD_R,2020.2.10,MacIntel,60,,,,,,,,,,,,,,,,,,,,,,,,,,,,,,,,,,,,,,,,,,,,0,18,18,18,1,E2-9622_Rec.png,1,E2-9622Real.png,1,,,,,,,
,,,,,,,,,,,,,,,,284,1,2024-02-09_11h38.33.247,Online_SceneSrcMD_R,2020.2.10,MacIntel,60,,,,,,,,,,,,,,,,,,,,,,,,,,,,,,l,20.5812,1,3,1,d,5.3469,0,1,0,0,0,0,1,,,,,,,,,,,,,,,,
,,,,,,,,,,,,,,,,284,1,2024-02-09_11h38.33.247,Online_SceneSrcMD_R,2020.2.10,MacIntel,60,,,,,,,,,,,,,,,,,,,,,,,,,,,,,,,,,,,,,,,,,,,,0,19,19,19,1,E2-9040_Rec.png,1,E2-9040_SrcRec.png,0,,,,,,,
,,,,,,,,,,,,,,,,284,1,2024-02-09_11h38.33.247,Online_SceneSrcMD_R,2020.2.10,MacIntel,60,,,,,,,,,,,,,,,,,,,,,,,,,,,,,,,,,,,,,,,,,,,,,,,,,,,,,0,2,2,2,1,BlockNine.csv,Src_BlockThree.csv
,,,,,,,,,,,,,,,,284,1,2024-02-09_11h38.33.247,Online_SceneSrcMD_R,2020.2.10,MacIntel,60,,,,,,,,,,,,,,,,,,,,,,,,,,,,,,l,4.5791,1,3,1,k,6.3951,1,2,0,0,0,0,1,,,,,,,,,,,,,,,,
,,,,,,,,,,,,,,,,284,1,2024-02-09_11h38.33.247,Online_SceneSrcMD_R,2020.2.10,MacIntel,60,,,,,,,,,,,,,,,,,,,,,,,,,,,,,,,,,,,,,,,,,,,,0,0,0,0,1,E2-9230_Rec.png,1,E2-9230Real.png,1,,,,,,,
,,,,,,,,,,,,,,,,284,1,2024-02-09_11h38.33.247,Online_SceneSrcMD_R,2020.2.10,MacIntel,60,,,,,,,,,,,,,,,,,,,,,,,,,,,,,,l,1.844,1,3,1,j,4.3994,1,1,0,0,0,0,1,,,,,,,,,,,,,,,,
,,,,,,,,,,,,,,,,284,1,2024-02-09_11h38.33.247,Online_SceneSrcMD_R,2020.2.10,MacIntel,60,,,,,,,,,,,,,,,,,,,,,,,,,,,,,,,,,,,,,,,,,,,,0,1,1,1,1,E2-3170_Rec.png,1,E2-3170_SrcRec.png,0,,,,,,,
,,,,,,,,,,,,,,,,284,1,2024-02-09_11h38.33.247,Online_SceneSrcMD_R,2020.2.10,MacIntel,60,,,,,,,,,,,,,,,,,,,,,,,,,,,,,,d,9.2642,0,1,0,,,,,,,,,,0,2,2,2,1,N1-2870_Rec.png,0,N1-2870Real.png,1,,,,,,,
,,,,,,,,,,,,,,,,284,1,2024-02-09_11h38.33.247,Online_SceneSrcMD_R,2020.2.10,MacIntel,60,,,,,,,,,,,,,,,,,,,,,,,,,,,,,,k,6.6856,1,2,1,j,7.1548,1,1,0,0,0,0,1,,,,,,,,,,,,,,,,
,,,,,,,,,,,,,,,,284,1,2024-02-09_11h38.33.247,Online_SceneSrcMD_R,2020.2.10,MacIntel,60,,,,,,,,,,,,,,,,,,,,,,,,,,,,,,,,,,,,,,,,,,,,0,3,3,3,1,N2-1661_Rec.png,1,N2-1661_SrcRec.png,0,,,,,,,
,,,,,,,,,,,,,,,,284,1,2024-02-09_11h38.33.247,Online_SceneSrcMD_R,2020.2.10,MacIntel,60,,,,,,,,,,,,,,,,,,,,,,,,,,,,,,j,7.2682,1,1,1,d,9.2207,0,1,0,0,0,0,1,,,,,,,,,,,,,,,,
,,,,,,,,,,,,,,,,284,1,2024-02-09_11h38.33.247,Online_SceneSrcMD_R,2020.2.10,MacIntel,60,,,,,,,,,,,,,,,,,,,,,,,,,,,,,,,,,,,,,,,,,,,,0,4,4,4,1,E1-3061_Rec.png,0,E1-3061Real.png,1,,,,,,,
,,,,,,,,,,,,,,,,284,1,2024-02-09_11h38.33.247,Online_SceneSrcMD_R,2020.2.10,MacIntel,60,,,,,,,,,,,,,,,,,,,,,,,,,,,,,,k,8.598,1,2,1,d,6.1318,0,1,0,0,0,0,1,,,,,,,,,,,,,,,,
,,,,,,,,,,,,,,,,284,1,2024-02-09_11h38.33.247,Online_SceneSrcMD_R,2020.2.10,MacIntel,60,,,,,,,,,,,,,,,,,,,,,,,,,,,,,,,,,,,,,,,,,,,,0,5,5,5,1,N1-2393_Rec.png,0,N1-2393Real.png,1,,,,,,,
,,,,,,,,,,,,,,,,284,1,2024-02-09_11h38.33.247,Online_SceneSrcMD_R,2020.2.10,MacIntel,60,,,,,,,,,,,,,,,,,,,,,,,,,,,,,,j,9.0642,1,1,1,d,5.1435,0,1,0,0,0,0,1,,,,,,,,,,,,,,,,
,,,,,,,,,,,,,,,,284,1,2024-02-09_11h38.33.247,Online_SceneSrcMD_R,2020.2.10,MacIntel,60,,,,,,,,,,,,,,,,,,,,,,,,,,,,,,,,,,,,,,,,,,,,0,6,6,6,1,N2-2616_Rec.png,1,N2-2616_SrcRec.png,0,,,,,,,
,,,,,,,,,,,,,,,,284,1,2024-02-09_11h38.33.247,Online_SceneSrcMD_R,2020.2.10,MacIntel,60,,,,,,,,,,,,,,,,,,,,,,,,,,,,,,j,8.0038,1,1,1,d,5.872,0,1,0,0,0,0,1,,,,,,,,,,,,,,,,
,,,,,,,,,,,,,,,,284,1,2024-02-09_11h38.33.247,Online_SceneSrcMD_R,2020.2.10,MacIntel,60,,,,,,,,,,,,,,,,,,,,,,,,,,,,,,,,,,,,,,,,,,,,0,7,7,7,1,E2-8230_Rec.png,1,E2-8230_SrcRec.png,0,,,,,,,
,,,,,,,,,,,,,,,,284,1,2024-02-09_11h38.33.247,Online_SceneSrcMD_R,2020.2.10,MacIntel,60,,,,,,,,,,,,,,,,,,,,,,,,,,,,,,j,11.9001,1,1,1,d,8.9237,0,1,0,0,0,0,1,,,,,,,,,,,,,,,,
,,,,,,,,,,,,,,,,284,1,2024-02-09_11h38.33.247,Online_SceneSrcMD_R,2020.2.10,MacIntel,60,,,,,,,,,,,,,,,,,,,,,,,,,,,,,,,,,,,,,,,,,,,,0,8,8,8,1,E1-1525_Rec.png,0,E1-1525Real.png,1,,,,,,,
,,,,,,,,,,,,,,,,284,1,2024-02-09_11h38.33.247,Online_SceneSrcMD_R,2020.2.10,MacIntel,60,,,,,,,,,,,,,,,,,,,,,,,,,,,,,,d,6.7301,0,1,0,,,,,,,,,,0,9,9,9,1,N1-8311_Rec.png,0,N1-8311Real.png,1,,,,,,,
,,,,,,,,,,,,,,,,284,1,2024-02-09_11h38.33.247,Online_SceneSrcMD_R,2020.2.10,MacIntel,60,,,,,,,,,,,,,,,,,,,,,,,,,,,,,,l,3.3675,1,3,1,j,6.6458,1,1,0,0,0,0,1,,,,,,,,,,,,,,,,
,,,,,,,,,,,,,,,,284,1,2024-02-09_11h38.33.247,Online_SceneSrcMD_R,2020.2.10,MacIntel,60,,,,,,,,,,,,,,,,,,,,,,,,,,,,,,,,,,,,,,,,,,,,0,10,10,10,1,N2-2235_Rec.png,1,N2-2235_SrcRec.png,0,,,,,,,
,,,,,,,,,,,,,,,,284,1,2024-02-09_11h38.33.247,Online_SceneSrcMD_R,2020.2.10,MacIntel,60,,,,,,,,,,,,,,,,,,,,,,,,,,,,,,k,5.183,1,2,1,d,3.2843,0,1,0,0,0,0,1,,,,,,,,,,,,,,,,
,,,,,,,,,,,,,,,,284,1,2024-02-09_11h38.33.247,Online_SceneSrcMD_R,2020.2.10,MacIntel,60,,,,,,,,,,,,,,,,,,,,,,,,,,,,,,,,,,,,,,,,,,,,0,11,11,11,1,E2-3230_Rec.png,1,E2-3230_SrcRec.png,0,,,,,,,
,,,,,,,,,,,,,,,,284,1,2024-02-09_11h38.33.247,Online_SceneSrcMD_R,2020.2.10,MacIntel,60,,,,,,,,,,,,,,,,,,,,,,,,,,,,,,k,5.8407,1,2,1,d,3.2427,0,1,0,0,0,0,1,,,,,,,,,,,,,,,,
,,,,,,,,,,,,,,,,284,1,2024-02-09_11h38.33.247,Online_SceneSrcMD_R,2020.2.10,MacIntel,60,,,,,,,,,,,,,,,,,,,,,,,,,,,,,,,,,,,,,,,,,,,,0,12,12,12,1,N2-2594_Rec.png,1,N2-2594Real.png,1,,,,,,,
,,,,,,,,,,,,,,,,284,1,2024-02-09_11h38.33.247,Online_SceneSrcMD_R,2020.2.10,MacIntel,60,,,,,,,,,,,,,,,,,,,,,,,,,,,,,,l,2.543,1,3,1,d,2.6427,0,1,0,0,0,0,1,,,,,,,,,,,,,,,,
,,,,,,,,,,,,,,,,284,1,2024-02-09_11h38.33.247,Online_SceneSrcMD_R,2020.2.10,MacIntel,60,,,,,,,,,,,,,,,,,,,,,,,,,,,,,,,,,,,,,,,,,,,,0,13,13,13,1,N2-2512_Rec.png,1,N2-2512_SrcRec.png,0,,,,,,,
,,,,,,,,,,,,,,,,284,1,2024-02-09_11h38.33.247,Online_SceneSrcMD_R,2020.2.10,MacIntel,60,,,,,,,,,,,,,,,,,,,,,,,,,,,,,,k,5.0707,1,2,1,d,8.3333,0,1,0,0,0,0,1,,,,,,,,,,,,,,,,
,,,,,,,,,,,,,,,,284,1,2024-02-09_11h38.33.247,Online_SceneSrcMD_R,2020.2.10,MacIntel,60,,,,,,,,,,,,,,,,,,,,,,,,,,,,,,,,,,,,,,,,,,,,0,14,14,14,1,E1-3168_Rec.png,0,E1-3168Real.png,1,,,,,,,
,,,,,,,,,,,,,,,,284,1,2024-02-09_11h38.33.247,Online_SceneSrcMD_R,2020.2.10,MacIntel,60,,,,,,,,,,,,,,,,,,,,,,,,,,,,,,j,8.7695,1,1,1,d,4.6763,0,1,0,0,0,0,1,,,,,,,,,,,,,,,,
,,,,,,,,,,,,,,,,284,1,2024-02-09_11h38.33.247,Online_SceneSrcMD_R,2020.2.10,MacIntel,60,,,,,,,,,,,,,,,,,,,,,,,,,,,,,,,,,,,,,,,,,,,,0,15,15,15,1,E1-2053_Rec.png,0,E1-2053_SrcRec.png,0,,,,,,,
,,,,,,,,,,,,,,,,284,1,2024-02-09_11h38.33.247,Online_SceneSrcMD_R,2020.2.10,MacIntel,60,,,,,,,,,,,,,,,,,,,,,,,,,,,,,,k,7.7352,1,2,1,j,11.858,1,1,0,0,0,0,1,,,,,,,,,,,,,,,,
,,,,,,,,,,,,,,,,284,1,2024-02-09_11h38.33.247,Online_SceneSrcMD_R,2020.2.10,MacIntel,60,,,,,,,,,,,,,,,,,,,,,,,,,,,,,,,,,,,,,,,,,,,,0,16,16,16,1,N1-2605_Rec.png,0,N1-2605Real.png,1,,,,,,,
,,,,,,,,,,,,,,,,284,1,2024-02-09_11h38.33.247,Online_SceneSrcMD_R,2020.2.10,MacIntel,60,,,,,,,,,,,,,,,,,,,,,,,,,,,,,,l,2.4498,1,3,1,j,13.0536,1,1,0,0,0,0,1,,,,,,,,,,,,,,,,
,,,,,,,,,,,,,,,,284,1,2024-02-09_11h38.33.247,Online_SceneSrcMD_R,2020.2.10,MacIntel,60,,,,,,,,,,,,,,,,,,,,,,,,,,,,,,,,,,,,,,,,,,,,0,17,17,17,1,E2-2716_Rec.png,1,E2-2716Real.png,1,,,,,,,
,,,,,,,,,,,,,,,,284,1,2024-02-09_11h38.33.247,Online_SceneSrcMD_R,2020.2.10,MacIntel,60,,,,,,,,,,,,,,,,,,,,,,,,,,,,,,d,7.2594,0,1,0,,,,,,,,,,0,18,18,18,1,N1-5455_Rec.png,0,N1-5455_SrcRec.png,0,,,,,,,
,,,,,,,,,,,,,,,,284,1,2024-02-09_11h38.33.247,Online_SceneSrcMD_R,2020.2.10,MacIntel,60,,,,,,,,,,,,,,,,,,,,,,,,,,,,,,d,4.9929,0,1,0,,,,,,,,,,0,19,19,19,1,E1-3068_Rec.png,0,E1-3068_SrcRec.png,0,,,,,,,
,,,,,,,,,,,,,,,,284,1,2024-02-09_11h38.33.247,Online_SceneSrcMD_R,2020.2.10,MacIntel,60,,,,,,,,,,,,,,,,,,,,,,,,,,,,,,,,,,,,,,,,,,,,,,,,,,,,,0,3,3,3,1,BlockTen.csv,Src_BlockFour.csv
,,,,,,,,,,,,,,,,284,1,2024-02-09_11h38.33.247,Online_SceneSrcMD_R,2020.2.10,MacIntel,60,,,,,,,,,,,,,,,,,,,,,,,,,,,,,,j,4.2509,1,1,1,j,4.5143,1,1,0,0,0,0,1,,,,,,,,,,,,,,,,
,,,,,,,,,,,,,,,,284,1,2024-02-09_11h38.33.247,Online_SceneSrcMD_R,2020.2.10,MacIntel,60,,,,,,,,,,,,,,,,,,,,,,,,,,,,,,,,,,,,,,,,,,,,0,0,0,0,1,N2-2606_Rec.png,1,N2-2606Real.png,1,,,,,,,
,,,,,,,,,,,,,,,,284,1,2024-02-09_11h38.33.247,Online_SceneSrcMD_R,2020.2.10,MacIntel,60,,,,,,,,,,,,,,,,,,,,,,,,,,,,,,k,5.3615,1,2,1,d,4.1311,0,1,0,0,0,0,1,,,,,,,,,,,,,,,,
,,,,,,,,,,,,,,,,284,1,2024-02-09_11h38.33.247,Online_SceneSrcMD_R,2020.2.10,MacIntel,60,,,,,,,,,,,,,,,,,,,,,,,,,,,,,,,,,,,,,,,,,,,,0,1,1,1,1,E2-9410_Rec.png,1,E2-9410Real.png,1,,,,,,,
,,,,,,,,,,,,,,,,284,1,2024-02-09_11h38.33.247,Online_SceneSrcMD_R,2020.2.10,MacIntel,60,,,,,,,,,,,,,,,,,,,,,,,,,,,,,,s,6.7993,0,2,0,,,,,,,,,,0,2,2,2,1,N1-9070_Rec.png,0,N1-9070_SrcRec.png,0,,,,,,,
,,,,,,,,,,,,,,,,284,1,2024-02-09_11h38.33.247,Online_SceneSrcMD_R,2020.2.10,MacIntel,60,,,,,,,,,,,,,,,,,,,,,,,,,,,,,,j,15.5471,1,1,1,j,4.6125,1,1,0,0,0,0,1,,,,,,,,,,,,,,,,
,,,,,,,,,,,,,,,,284,1,2024-02-09_11h38.33.247,Online_SceneSrcMD_R,2020.2.10,MacIntel,60,,,,,,,,,,,,,,,,,,,,,,,,,,,,,,,,,,,,,,,,,,,,0,3,3,3,1,E2-9340_Rec.png,1,E2-9340_SrcRec.png,0,,,,,,,
,,,,,,,,,,,,,,,,284,1,2024-02-09_11h38.33.247,Online_SceneSrcMD_R,2020.2.10,MacIntel,60,,,,,,,,,,,,,,,,,,,,,,,,,,,,,,j,6.3944,1,1,1,d,12.3624,0,1,0,0,0,0,1,,,,,,,,,,,,,,,,
,,,,,,,,,,,,,,,,284,1,2024-02-09_11h38.33.247,Online_SceneSrcMD_R,2020.2.10,MacIntel,60,,,,,,,,,,,,,,,,,,,,,,,,,,,,,,,,,,,,,,,,,,,,0,4,4,4,1,N2-7560_Rec.png,1,N2-7560Real.png,1,,,,,,,
,,,,,,,,,,,,,,,,284,1,2024-02-09_11h38.33.247,Online_SceneSrcMD_R,2020.2.10,MacIntel,60,,,,,,,,,,,,,,,,,,,,,,,,,,,,,,j,7.3524,1,1,1,j,1.1552,1,1,0,0,0,0,1,,,,,,,,,,,,,,,,
,,,,,,,,,,,,,,,,284,1,2024-02-09_11h38.33.247,Online_SceneSrcMD_R,2020.2.10,MacIntel,60,,,,,,,,,,,,,,,,,,,,,,,,,,,,,,,,,,,,,,,,,,,,0,5,5,5,1,E2-2900_1_Rec.png,1,E2-2900_1Real.png,1,,,,,,,
,,,,,,,,,,,,,,,,284,1,2024-02-09_11h38.33.247,Online_SceneSrcMD_R,2020.2.10,MacIntel,60,,,,,,,,,,,,,,,,,,,,,,,,,,,,,,k,4.0091,1,2,1,j,5.0517,1,1,0,0,0,0,1,,,,,,,,,,,,,,,,
,,,,,,,,,,,,,,,,284,1,2024-02-09_11h38.33.247,Online_SceneSrcMD_R,2020.2.10,MacIntel,60,,,,,,,,,,,,,,,,,,,,,,,,,,,,,,,,,,,,,,,,,,,,0,6,6,6,1,N2-7550_Rec.png,1,N2-7550_SrcRec.png,0,,,,,,,
,,,,,,,,,,,,,,,,284,1,2024-02-09_11h38.33.247,Online_SceneSrcMD_R,2020.2.10,MacIntel,60,,,,,,,,,,,,,,,,,,,,,,,,,,,,,,d,5.2618,0,1,0,,,,,,,,,,0,7,7,7,1,N1-5390_Rec.png,0,N1-5390Real.png,1,,,,,,,
,,,,,,,,,,,,,,,,284,1,2024-02-09_11h38.33.247,Online_SceneSrcMD_R,2020.2.10,MacIntel,60,,,,,,,,,,,,,,,,,,,,,,,,,,,,,,d,6.8043,0,1,0,,,,,,,,,,0,8,8,8,1,E1-3150_Rec.png,0,E1-3150_SrcRec.png,0,,,,,,,
,,,,,,,,,,,,,,,,284,1,2024-02-09_11h38.33.247,Online_SceneSrcMD_R,2020.2.10,MacIntel,60,,,,,,,,,,,,,,,,,,,,,,,,,,,,,,j,5.9853,1,1,1,d,7.7785,0,1,0,0,0,0,1,,,,,,,,,,,,,,,,
,,,,,,,,,,,,,,,,284,1,2024-02-09_11h38.33.247,Online_SceneSrcMD_R,2020.2.10,MacIntel,60,,,,,,,,,,,,,,,,,,,,,,,,,,,,,,,,,,,,,,,,,,,,0,9,9,9,1,E2-9582_Rec.png,1,E2-9582Real.png,1,,,,,,,
,,,,,,,,,,,,,,,,284,1,2024-02-09_11h38.33.247,Online_SceneSrcMD_R,2020.2.10,MacIntel,60,,,,,,,,,,,,,,,,,,,,,,,,,,,,,,k,4.8684,1,2,1,d,6.016,0,1,0,0,0,0,1,,,,,,,,,,,,,,,,
,,,,,,,,,,,,,,,,284,1,2024-02-09_11h38.33.247,Online_SceneSrcMD_R,2020.2.10,MacIntel,60,,,,,,,,,,,,,,,,,,,,,,,,,,,,,,,,,,,,,,,,,,,,0,10,10,10,1,E2-9420_Rec.png,1,E2-9420_SrcRec.png,0,,,,,,,
,,,,,,,,,,,,,,,,284,1,2024-02-09_11h38.33.247,Online_SceneSrcMD_R,2020.2.10,MacIntel,60,,,,,,,,,,,,,,,,,,,,,,,,,,,,,,d,6.5154,0,1,0,,,,,,,,,,0,11,11,11,1,N1-2485_Rec.png,0,N1-2485_SrcRec.png,0,,,,,,,
,,,,,,,,,,,,,,,,284,1,2024-02-09_11h38.33.247,Online_SceneSrcMD_R,2020.2.10,MacIntel,60,,,,,,,,,,,,,,,,,,,,,,,,,,,,,,l,8.0564,1,3,1,d,5.9312,0,1,0,0,0,0,1,,,,,,,,,,,,,,,,
,,,,,,,,,,,,,,,,284,1,2024-02-09_11h38.33.247,Online_SceneSrcMD_R,2020.2.10,MacIntel,60,,,,,,,,,,,,,,,,,,,,,,,,,,,,,,,,,,,,,,,,,,,,0,12,12,12,1,N2-7491_Rec.png,1,N2-7491Real.png,1,,,,,,,
,,,,,,,,,,,,,,,,284,1,2024-02-09_11h38.33.247,Online_SceneSrcMD_R,2020.2.10,MacIntel,60,,,,,,,,,,,,,,,,,,,,,,,,,,,,,,k,5.4958,1,2,1,d,3.7706,0,1,0,0,0,0,1,,,,,,,,,,,,,,,,
,,,,,,,,,,,,,,,,284,1,2024-02-09_11h38.33.247,Online_SceneSrcMD_R,2020.2.10,MacIntel,60,,,,,,,,,,,,,,,,,,,,,,,,,,,,,,,,,,,,,,,,,,,,0,13,13,13,1,E1-2691_Rec.png,0,E1-2691Real.png,1,,,,,,,
,,,,,,,,,,,,,,,,284,1,2024-02-09_11h38.33.247,Online_SceneSrcMD_R,2020.2.10,MacIntel,60,,,,,,,,,,,,,,,,,,,,,,,,,,,,,,a,5.5859,0,3,0,,,,,,,,,,0,14,14,14,1,N1-7640_Rec.png,0,N1-7640_SrcRec.png,0,,,,,,,
,,,,,,,,,,,,,,,,284,1,2024-02-09_11h38.33.247,Online_SceneSrcMD_R,2020.2.10,MacIntel,60,,,,,,,,,,,,,,,,,,,,,,,,,,,,,,d,4.4251,0,1,0,,,,,,,,,,0,15,15,15,1,E1-9253_Rec.png,0,E1-9253_SrcRec.png,0,,,,,,,
,,,,,,,,,,,,,,,,284,1,2024-02-09_11h38.33.247,Online_SceneSrcMD_R,2020.2.10,MacIntel,60,,,,,,,,,,,,,,,,,,,,,,,,,,,,,,j,7.9992,1,1,1,j,6.3197,1,1,0,0,0,0,1,,,,,,,,,,,,,,,,
,,,,,,,,,,,,,,,,284,1,2024-02-09_11h38.33.247,Online_SceneSrcMD_R,2020.2.10,MacIntel,60,,,,,,,,,,,,,,,,,,,,,,,,,,,,,,,,,,,,,,,,,,,,0,16,16,16,1,N2-6570_2_Rec.png,1,N2-6570_2Real.png,1,,,,,,,
,,,,,,,,,,,,,,,,284,1,2024-02-09_11h38.33.247,Online_SceneSrcMD_R,2020.2.10,MacIntel,60,,,,,,,,,,,,,,,,,,,,,,,,,,,,,,l,5.596,1,3,1,d,3.2832,0,1,0,0,0,0,1,,,,,,,,,,,,,,,,
,,,,,,,,,,,,,,,,284,1,2024-02-09_11h38.33.247,Online_SceneSrcMD_R,2020.2.10,MacIntel,60,,,,,,,,,,,,,,,,,,,,,,,,,,,,,,,,,,,,,,,,,,,,0,17,17,17,1,E1-9250_Rec.png,0,E1-9250Real.png,1,,,,,,,
,,,,,,,,,,,,,,,,284,1,2024-02-09_11h38.33.247,Online_SceneSrcMD_R,2020.2.10,MacIntel,60,,,,,,,,,,,,,,,,,,,,,,,,,,,,,,j,4.7435,1,1,1,j,5.5316,1,1,0,0,0,0,1,,,,,,,,,,,,,,,,
,,,,,,,,,,,,,,,,284,1,2024-02-09_11h38.33.247,Online_SceneSrcMD_R,2020.2.10,MacIntel,60,,,,,,,,,,,,,,,,,,,,,,,,,,,,,,,,,,,,,,,,,,,,0,18,18,18,1,E1-9600_Rec.png,0,E1-9600_SrcRec.png,0,,,,,,,
,,,,,,,,,,,,,,,,284,1,2024-02-09_11h38.33.247,Online_SceneSrcMD_R,2020.2.10,MacIntel,60,,,,,,,,,,,,,,,,,,,,,,,,,,,,,,d,4.7006,0,1,0,,,,,,,,,,0,19,19,19,1,N1-1947_Rec.png,0,N1-1947_SrcRec.png,0,,,,,,,
,,,,,,,,,,,,,,,,284,1,2024-02-09_11h38.33.247,Online_SceneSrcMD_R,2020.2.10,MacIntel,60,,,,,,,,,,,,,,,,,,,,,,,,,,,,,,,,,,,,,,,,,,,,,,,,,,,,,0,4,4,4,1,BlockEleven.csv,Src_BlockFive.csv
,,,,,,,,,,,,,,,,284,1,2024-02-09_11h38.33.247,Online_SceneSrcMD_R,2020.2.10,MacIntel,60,,,,,,,,,,,,,,,,,,,,,,,,,,,,,,j,5.6663,1,1,1,j,7.2211,1,1,0,0,0,0,1,,,,,,,,,,,,,,,,
,,,,,,,,,,,,,,,,284,1,2024-02-09_11h38.33.247,Online_SceneSrcMD_R,2020.2.10,MacIntel,60,,,,,,,,,,,,,,,,,,,,,,,,,,,,,,,,,,,,,,,,,,,,0,0,0,0,1,E1-9810_Rec.png,0,E1-9810Real.png,1,,,,,,,
,,,,,,,,,,,,,,,,284,1,2024-02-09_11h38.33.247,Online_SceneSrcMD_R,2020.2.10,MacIntel,60,,,,,,,,,,,,,,,,,,,,,,,,,,,,,,j,4.8005,1,1,1,s,4.3594,0,2,0,0,0,0,1,,,,,,,,,,,,,,,,
,,,,,,,,,,,,,,,,284,1,2024-02-09_11h38.33.247,Online_SceneSrcMD_R,2020.2.10,MacIntel,60,,,,,,,,,,,,,,,,,,,,,,,,,,,,,,,,,,,,,,,,,,,,0,1,1,1,1,N1-2593_Rec.png,0,N1-2593Real.png,1,,,,,,,
,,,,,,,,,,,,,,,,284,1,2024-02-09_11h38.33.247,Online_SceneSrcMD_R,2020.2.10,MacIntel,60,,,,,,,,,,,,,,,,,,,,,,,,,,,,,,l,6.2144,1,3,1,d,9.1486,0,1,0,0,0,0,1,,,,,,,,,,,,,,,,
,,,,,,,,,,,,,,,,284,1,2024-02-09_11h38.33.247,Online_SceneSrcMD_R,2020.2.10,MacIntel,60,,,,,,,,,,,,,,,,,,,,,,,,,,,,,,,,,,,,,,,,,,,,0,2,2,2,1,E1-9830_Rec.png,0,E1-9830_SrcRec.png,0,,,,,,,
,,,,,,,,,,,,,,,,284,1,2024-02-09_11h38.33.247,Online_SceneSrcMD_R,2020.2.10,MacIntel,60,,,,,,,,,,,,,,,,,,,,,,,,,,,,,,k,5.0809,1,2,1,d,11.9472,0,1,0,0,0,0,1,,,,,,,,,,,,,,,,
,,,,,,,,,,,,,,,,284,1,2024-02-09_11h38.33.247,Online_SceneSrcMD_R,2020.2.10,MacIntel,60,,,,,,,,,,,,,,,,,,,,,,,,,,,,,,,,,,,,,,,,,,,,0,3,3,3,1,N2-2200_Rec.png,1,N2-2200_SrcRec.png,0,,,,,,,
,,,,,,,,,,,,,,,,284,1,2024-02-09_11h38.33.247,Online_SceneSrcMD_R,2020.2.10,MacIntel,60,,,,,,,,,,,,,,,,,,,,,,,,,,,,,,s,4.2297,0,2,0,,,,,,,,,,0,4,4,4,1,N1-8041_Rec.png,0,N1-8041Real.png,1,,,,,,,
,,,,,,,,,,,,,,,,284,1,2024-02-09_11h38.33.247,Online_SceneSrcMD_R,2020.2.10,MacIntel,60,,,,,,,,,,,,,,,,,,,,,,,,,,,,,,j,5.2287,1,1,1,s,4.0337,0,2,0,0,0,0,1,,,,,,,,,,,,,,,,
,,,,,,,,,,,,,,,,284,1,2024-02-09_11h38.33.247,Online_SceneSrcMD_R,2020.2.10,MacIntel,60,,,,,,,,,,,,,,,,,,,,,,,,,,,,,,,,,,,,,,,,,,,,0,5,5,5,1,E1-9180_Rec.png,0,E1-9180Real.png,1,,,,,,,
,,,,,,,,,,,,,,,,284,1,2024-02-09_11h38.33.247,Online_SceneSrcMD_R,2020.2.10,MacIntel,60,,,,,,,,,,,,,,,,,,,,,,,,,,,,,,k,4.399,1,2,1,d,2.9311,0,1,0,0,0,0,1,,,,,,,,,,,,,,,,
,,,,,,,,,,,,,,,,284,1,2024-02-09_11h38.33.247,Online_SceneSrcMD_R,2020.2.10,MacIntel,60,,,,,,,,,,,,,,,,,,,,,,,,,,,,,,,,,,,,,,,,,,,,0,6,6,6,1,N2-2620_Rec.png,1,N2-2620_SrcRec.png,0,,,,,,,
,,,,,,,,,,,,,,,,284,1,2024-02-09_11h38.33.247,Online_SceneSrcMD_R,2020.2.10,MacIntel,60,,,,,,,,,,,,,,,,,,,,,,,,,,,,,,l,5.3905,1,3,1,s,5.1654,0,2,0,0,0,0,1,,,,,,,,,,,,,,,,
,,,,,,,,,,,,,,,,284,1,2024-02-09_11h38.33.247,Online_SceneSrcMD_R,2020.2.10,MacIntel,60,,,,,,,,,,,,,,,,,,,,,,,,,,,,,,,,,,,,,,,,,,,,0,7,7,7,1,E2-3266_Rec.png,1,E2-3266_SrcRec.png,0,,,,,,,
,,,,,,,,,,,,,,,,284,1,2024-02-09_11h38.33.247,Online_SceneSrcMD_R,2020.2.10,MacIntel,60,,,,,,,,,,,,,,,,,,,,,,,,,,,,,,l,3.7995,1,3,1,k,5.6164,1,2,0,0,0,0,1,,,,,,,,,,,,,,,,
,,,,,,,,,,,,,,,,284,1,2024-02-09_11h38.33.247,Online_SceneSrcMD_R,2020.2.10,MacIntel,60,,,,,,,,,,,,,,,,,,,,,,,,,,,,,,,,,,,,,,,,,,,,0,8,8,8,1,N2-2270_Rec.png,1,N2-2270Real.png,1,,,,,,,
,,,,,,,,,,,,,,,,284,1,2024-02-09_11h38.33.247,Online_SceneSrcMD_R,2020.2.10,MacIntel,60,,,,,,,,,,,,,,,,,,,,,,,,,,,,,,a,5.9002,0,3,0,,,,,,,,,,0,9,9,9,1,N1-2240_Rec.png,0,N1-2240_SrcRec.png,0,,,,,,,
,,,,,,,,,,,,,,,,284,1,2024-02-09_11h38.33.247,Online_SceneSrcMD_R,2020.2.10,MacIntel,60,,,,,,,,,,,,,,,,,,,,,,,,,,,,,,j,9.66,1,1,1,d,2.8484,0,1,0,0,0,0,1,,,,,,,,,,,,,,,,
,,,,,,,,,,,,,,,,284,1,2024-02-09_11h38.33.247,Online_SceneSrcMD_R,2020.2.10,MacIntel,60,,,,,,,,,,,,,,,,,,,,,,,,,,,,,,,,,,,,,,,,,,,,0,10,10,10,1,N2-5779_Rec.png,1,N2-5779Real.png,1,,,,,,,
,,,,,,,,,,,,,,,,284,1,2024-02-09_11h38.33.247,Online_SceneSrcMD_R,2020.2.10,MacIntel,60,,,,,,,,,,,,,,,,,,,,,,,,,,,,,,a,8.0501,0,3,0,,,,,,,,,,0,11,11,11,1,E1-1274_Rec.png,0,E1-1274Real.png,1,,,,,,,
,,,,,,,,,,,,,,,,284,1,2024-02-09_11h38.33.247,Online_SceneSrcMD_R,2020.2.10,MacIntel,60,,,,,,,,,,,,,,,,,,,,,,,,,,,,,,d,4.7273,0,1,0,,,,,,,,,,0,12,12,12,1,E2-9921_Rec.png,1,E2-9921_SrcRec.png,0,,,,,,,
,,,,,,,,,,,,,,,,284,1,2024-02-09_11h38.33.247,Online_SceneSrcMD_R,2020.2.10,MacIntel,60,,,,,,,,,,,,,,,,,,,,,,,,,,,,,,j,10.1824,1,1,1,d,5.0251,0,1,0,0,0,0,1,,,,,,,,,,,,,,,,
,,,,,,,,,,,,,,,,284,1,2024-02-09_11h38.33.247,Online_SceneSrcMD_R,2020.2.10,MacIntel,60,,,,,,,,,,,,,,,,,,,,,,,,,,,,,,,,,,,,,,,,,,,,0,13,13,13,1,E1-2717_Rec.png,0,E1-2717Real.png,1,,,,,,,
,,,,,,,,,,,,,,,,284,1,2024-02-09_11h38.33.247,Online_SceneSrcMD_R,2020.2.10,MacIntel,60,,,,,,,,,,,,,,,,,,,,,,,,,,,,,,s,6.7436,0,2,0,,,,,,,,,,0,14,14,14,1,N1-5994_Rec.png,0,N1-5994_SrcRec.png,0,,,,,,,
,,,,,,,,,,,,,,,,284,1,2024-02-09_11h38.33.247,Online_SceneSrcMD_R,2020.2.10,MacIntel,60,,,,,,,,,,,,,,,,,,,,,,,,,,,,,,d,4.3469,0,1,0,,,,,,,,,,0,15,15,15,1,N1-5410_Rec.png,0,N1-5410Real.png,1,,,,,,,
,,,,,,,,,,,,,,,,284,1,2024-02-09_11h38.33.247,Online_SceneSrcMD_R,2020.2.10,MacIntel,60,,,,,,,,,,,,,,,,,,,,,,,,,,,,,,l,3.6466,1,3,1,s,7.4599,0,2,0,0,0,0,1,,,,,,,,,,,,,,,,
,,,,,,,,,,,,,,,,284,1,2024-02-09_11h38.33.247,Online_SceneSrcMD_R,2020.2.10,MacIntel,60,,,,,,,,,,,,,,,,,,,,,,,,,,,,,,,,,,,,,,,,,,,,0,16,16,16,1,E2-2683_Rec.png,1,E2-2683_SrcRec.png,0,,,,,,,
,,,,,,,,,,,,,,,,284,1,2024-02-09_11h38.33.247,Online_SceneSrcMD_R,2020.2.10,MacIntel,60,,,,,,,,,,,,,,,,,,,,,,,,,,,,,,k,4.3744,1,2,1,s,5.2474,0,2,0,0,0,0,1,,,,,,,,,,,,,,,,
,,,,,,,,,,,,,,,,284,1,2024-02-09_11h38.33.247,Online_SceneSrcMD_R,2020.2.10,MacIntel,60,,,,,,,,,,,,,,,,,,,,,,,,,,,,,,,,,,,,,,,,,,,,0,17,17,17,1,N2-2579_Rec.png,1,N2-2579_SrcRec.png,0,,,,,,,
,,,,,,,,,,,,,,,,284,1,2024-02-09_11h38.33.247,Online_SceneSrcMD_R,2020.2.10,MacIntel,60,,,,,,,,,,,,,,,,,,,,,,,,,,,,,,l,2.4665,1,3,1,d,13.874,0,1,0,0,0,0,1,,,,,,,,,,,,,,,,
,,,,,,,,,,,,,,,,284,1,2024-02-09_11h38.33.247,Online_SceneSrcMD_R,2020.2.10,MacIntel,60,,,,,,,,,,,,,,,,,,,,,,,,,,,,,,,,,,,,,,,,,,,,0,18,18,18,1,E2-6243_Rec.png,1,E2-6243Real.png,1,,,,,,,
,,,,,,,,,,,,,,,,284,1,2024-02-09_11h38.33.247,Online_SceneSrcMD_R,2020.2.10,MacIntel,60,,,,,,,,,,,,,,,,,,,,,,,,,,,,,,k,4.2959,1,2,1,d,3.4175,0,1,0,0,0,0,1,,,,,,,,,,,,,,,,
,,,,,,,,,,,,,,,,284,1,2024-02-09_11h38.33.247,Online_SceneSrcMD_R,2020.2.10,MacIntel,60,,,,,,,,,,,,,,,,,,,,,,,,,,,,,,,,,,,,,,,,,,,,0,19,19,19,1,E2-9424_Rec.png,1,E2-9424_SrcRec.png,0,,,,,,,
,,,,,,,,,,,,,,,,284,1,2024-02-09_11h38.33.247,Online_SceneSrcMD_R,2020.2.10,MacIntel,60,,,,,,,,,,,,,,,,,,,,,,,,,,,,,,,,,,,,,,,,,,,,,,,,,,,,,0,5,5,5,1,BlockTwelve.csv,Src_BlockSix.csv