Instructions_Loop.thisRepN,Instructions_Loop.thisTrialN,Instructions_Loop.thisN,Instructions_Loop.thisIndex,Instructions_Loop.ran,Top,Top_Bottom,TBMT_int,Middle_Top,Middle,Middle_Bottom,Bottom_Top,Bottom,Photo,participant,session,date,expName,psychopyVersion,OS,frameRate,Redo_Instructions_Resp.keys,Redo_Instructions_Resp.rt,Redo_Instructions_Loop.thisRepN,Redo_Instructions_Loop.thisTrialN,Redo_Instructions_Loop.thisN,Redo_Instructions_Loop.thisIndex,Redo_Instructions_Loop.ran,Nback_Transition_Resp_Enc.keys,Nback_Transition_Resp_Enc.rt,Encoding_Resp.keys,Encoding_Resp.corr,Encoding_Resp.rt,Practice_Blocks.thisRepN,Practice_Blocks.thisTrialN,Practice_Blocks.thisN,Practice_Blocks.thisIndex,Practice_Blocks.ran,Scene,encAns,Practice_Enc_Break_Resp.keys,Practice_Enc_Break_Resp.rt,Practice_Enc_Break_Loop.thisRepN,Practice_Enc_Break_Loop.thisTrialN,Practice_Enc_Break_Loop.thisN,Practice_Enc_Break_Loop.thisIndex,Practice_Enc_Break_Loop.ran,Practice_Loop_Order.thisRepN,Practice_Loop_Order.thisTrialN,Practice_Loop_Order.thisN,Practice_Loop_Order.thisIndex,Practice_Loop_Order.ran,practiceFile,Nback_Transition_Resp.keys,Nback_Transition_Resp.rt,Nback_Resp.keys,Nback_Resp.corr,Nback_Resp.rt,Practice_DBack_Loop.thisRepN,Practice_DBack_Loop.thisTrialN,Practice_DBack_Loop.thisN,Practice_DBack_Loop.thisIndex,Practice_DBack_Loop.ran,thisAlphaNum,ANAns,Color,Practice_DBlock_Loop.thisRepN,Practice_DBlock_Loop.thisTrialN,Practice_DBlock_Loop.thisN,Practice_DBlock_Loop.thisIndex,Practice_DBlock_Loop.ran,ANOrder,BlockTitle,Blocks.thisRepN,Blocks.thisTrialN,Blocks.thisN,Blocks.thisIndex,Blocks.ran,AttnResp_keys.keys,AttnResp_keys.rt,Enc_Break_Resp.keys,Enc_Break_Resp.rt,Enc_Break_Loop.thisRepN,Enc_Break_Loop.thisTrialN,Enc_Break_Loop.thisN,Enc_Break_Loop.thisIndex,Enc_Break_Loop.ran,AttnCheck,Group_Order.thisRepN,Group_Order.thisTrialN,Group_Order.thisN,Group_Order.thisIndex,Group_Order.ran,blockFile,attnFile,Enc_Break_Loop2.thisRepN,Enc_Break_Loop2.thisTrialN,Enc_Break_Loop2.thisN,Enc_Break_Loop2.thisIndex,Enc_Break_Loop2.ran,DBack_Loop.thisRepN,DBack_Loop.thisTrialN,DBack_Loop.thisN,DBack_Loop.thisIndex,DBack_Loop.ran,DBlock_Loop.thisRepN,DBlock_Loop.thisTrialN,DBlock_Loop.thisN,DBlock_Loop.thisIndex,DBlock_Loop.ran
0,0,0,0,1,NaN,NaN,NaN,NaN,welcome,NaN,NaN,press SPACE to continue,Empty.png,119,1,2022-11-10_13h15.33.535,Online_SceneSrcMD_E,2020.2.10,MacIntel,60,,,,,,,,,,,,,,,,,,,,,,,,,,,,,,,,,,,,,,,,,,,,,,,,,,,,,,,,,,,,,,,,,,,,,,,,,,,,,,,,,,,,,,,,,
0,1,1,1,1,NaN,NaN,NaN,in this experiment you will categorize images and symbols.,NaN,NaN,NaN,press SPACE to continue,Empty.png,119,1,2022-11-10_13h15.33.535,Online_SceneSrcMD_E,2020.2.10,MacIntel,60,,,,,,,,,,,,,,,,,,,,,,,,,,,,,,,,,,,,,,,,,,,,,,,,,,,,,,,,,,,,,,,,,,,,,,,,,,,,,,,,,,,,,,,,,
0,2,2,2,1,"during the image categorization task, scenes will be presented on the screen one at a time.",NaN,NaN,each scene will be surrounded by a colored frame.,NaN,your task is to view each image and report if the frame color appears in the scene.,NaN,press SPACE to continue,Empty.png,119,1,2022-11-10_13h15.33.535,Online_SceneSrcMD_E,2020.2.10,MacIntel,60,,,,,,,,,,,,,,,,,,,,,,,,,,,,,,,,,,,,,,,,,,,,,,,,,,,,,,,,,,,,,,,,,,,,,,,,,,,,,,,,,,,,,,,,,
0,3,3,3,1,"if the frame color is present in the scene, press 'P'.","otherwise, press 'Q'.",NaN,each image will be presented for four seconds.,NaN,please respond during this time.,NaN,press SPACE to continue,Empty.png,119,1,2022-11-10_13h15.33.535,Online_SceneSrcMD_E,2020.2.10,MacIntel,60,,,,,,,,,,,,,,,,,,,,,,,,,,,,,,,,,,,,,,,,,,,,,,,,,,,,,,,,,,,,,,,,,,,,,,,,,,,,,,,,,,,,,,,,,
0,4,4,4,1,NaN,NaN,NaN,three blocks of images will be presented.,NaN,"after each block, you will have the option to take a short break.",NaN,press SPACE to continue,Empty.png,119,1,2022-11-10_13h15.33.535,Online_SceneSrcMD_E,2020.2.10,MacIntel,60,,,,,,,,,,,,,,,,,,,,,,,,,,,,,,,,,,,,,,,,,,,,,,,,,,,,,,,,,,,,,,,,,,,,,,,,,,,,,,,,,,,,,,,,,
0,5,5,5,1,some of the images will portray scenes with emotional content.,NaN,NaN,if you become uncomfortable please remember that you can leave the experiment at any point without penalty.,NaN,NaN,NaN,press SPACE to continue,Empty.png,119,1,2022-11-10_13h15.33.535,Online_SceneSrcMD_E,2020.2.10,MacIntel,60,,,,,,,,,,,,,,,,,,,,,,,,,,,,,,,,,,,,,,,,,,,,,,,,,,,,,,,,,,,,,,,,,,,,,,,,,,,,,,,,,,,,,,,,,
0,6,6,6,1,example of an image depicting a scene with emotional content:,NaN,NaN,NaN,NaN,NaN,'P' would be the correct response as blue appears in the scene.,press SPACE to continue,TS08.png,119,1,2022-11-10_13h15.33.535,Online_SceneSrcMD_E,2020.2.10,MacIntel,60,,,,,,,,,,,,,,,,,,,,,,,,,,,,,,,,,,,,,,,,,,,,,,,,,,,,,,,,,,,,,,,,,,,,,,,,,,,,,,,,,,,,,,,,,
0,7,7,7,1,example of an image depicting a scene with neutral content:,NaN,NaN,NaN,NaN,NaN,'Q' would be the correct response as red does not appear in the scene.,press SPACE to continue,TS06.png,119,1,2022-11-10_13h15.33.535,Online_SceneSrcMD_E,2020.2.10,MacIntel,60,,,,,,,,,,,,,,,,,,,,,,,,,,,,,,,,,,,,,,,,,,,,,,,,,,,,,,,,,,,,,,,,,,,,,,,,,,,,,,,,,,,,,,,,,
0,8,8,8,1,NaN,NaN,NaN,"after seeing both blocks of images, you will complete a symbol categorization task.",NaN,NaN,NaN,press SPACE to continue,Empty.png,119,1,2022-11-10_13h15.33.535,Online_SceneSrcMD_E,2020.2.10,MacIntel,60,,,,,,,,,,,,,,,,,,,,,,,,,,,,,,,,,,,,,,,,,,,,,,,,,,,,,,,,,,,,,,,,,,,,,,,,,,,,,,,,,,,,,,,,,
0,9,9,9,1,"during the symbol categorization task, symbols will be presented on the screen one at a time.",NaN,NaN,NaN,NaN,your task is to view each symbol and report its identity.,NaN,press SPACE to continue,Empty.png,119,1,2022-11-10_13h15.33.535,Online_SceneSrcMD_E,2020.2.10,MacIntel,60,,,,,,,,,,,,,,,,,,,,,,,,,,,,,,,,,,,,,,,,,,,,,,,,,,,,,,,,,,,,,,,,,,,,,,,,,,,,,,,,,,,,,,,,,
0,10,10,10,1,"if you see a number, press 'N'","if you see an alphabetical letter, press 'A'",NaN,each symbol will be presented for three seconds.,NaN,please respond during this time.,NaN,press SPACE to continue,Empty.png,119,1,2022-11-10_13h15.33.535,Online_SceneSrcMD_E,2020.2.10,MacIntel,60,,,,,,,,,,,,,,,,,,,,,,,,,,,,,,,,,,,,,,,,,,,,,,,,,,,,,,,,,,,,,,,,,,,,,,,,,,,,,,,,,,,,,,,,,
0,11,11,11,1,NaN,NaN,NaN,three blocks will be presented -- there will be no breaks in between the three blocks.,NaN,NaN,NaN,press SPACE to continue,Empty.png,119,1,2022-11-10_13h15.33.535,Online_SceneSrcMD_E,2020.2.10,MacIntel,60,,,,,,,,,,,,,,,,,,,,,,,,,,,,,,,,,,,,,,,,,,,,,,,,,,,,,,,,,,,,,,,,,,,,,,,,,,,,,,,,,,,,,,,,,
0,12,12,12,1,example of a number:,NaN,NaN,NaN,3,NaN,'N' would be the correct response as the symbol is a number.,press SPACE to continue,Empty.png,119,1,2022-11-10_13h15.33.535,Online_SceneSrcMD_E,2020.2.10,MacIntel,60,,,,,,,,,,,,,,,,,,,,,,,,,,,,,,,,,,,,,,,,,,,,,,,,,,,,,,,,,,,,,,,,,,,,,,,,,,,,,,,,,,,,,,,,,
0,13,13,13,1,example of a alphabetical letter:,NaN,NaN,NaN,C,NaN,'A' would be the correct response as the symbol is a letter.,press SPACE to continue,Empty.png,119,1,2022-11-10_13h15.33.535,Online_SceneSrcMD_E,2020.2.10,MacIntel,60,,,,,,,,,,,,,,,,,,,,,,,,,,,,,,,,,,,,,,,,,,,,,,,,,,,,,,,,,,,,,,,,,,,,,,,,,,,,,,,,,,,,,,,,,
0,14,14,14,1,NaN,NaN,NaN,this is the end of the instructions,NaN,NaN,NaN,press SPACE to continue,Empty.png,119,1,2022-11-10_13h15.33.535,Online_SceneSrcMD_E,2020.2.10,MacIntel,60,,,,,,,,,,,,,,,,,,,,,,,,,,,,,,,,,,,,,,,,,,,,,,,,,,,,,,,,,,,,,,,,,,,,,,,,,,,,,,,,,,,,,,,,,
,,,,,NaN,NaN,NaN,NaN,welcome,NaN,NaN,press SPACE to continue,Empty.png,119,1,2022-11-10_13h15.33.535,Online_SceneSrcMD_E,2020.2.10,MacIntel,60,r,5.001,0,0,0,0,1,,,,,,,,,,,,,,,,,,,,,,,,,,,,,,,,,,,,,,,,,,,,,,,,,,,,,,,,,,,,,,,,,,,,,,,,,,,,,,,,,,
,,,,,NaN,NaN,NaN,in this experiment you will categorize images and symbols.,NaN,NaN,NaN,press SPACE to continue,Empty.png,119,1,2022-11-10_13h15.33.535,Online_SceneSrcMD_E,2020.2.10,MacIntel,60,,,0,1,1,1,1,,,,,,,,,,,,,,,,,,,,,,,,,,,,,,,,,,,,,,,,,,,,,,,,,,,,,,,,,,,,,,,,,,,,,,,,,,,,,,,,,,
,,,,,"during the image categorization task, scenes will be presented on the screen one at a time.",NaN,NaN,each scene will be surrounded by a colored frame.,NaN,your task is to view each image and report if the frame color appears in the scene.,NaN,press SPACE to continue,Empty.png,119,1,2022-11-10_13h15.33.535,Online_SceneSrcMD_E,2020.2.10,MacIntel,60,,,0,2,2,2,1,,,,,,,,,,,,,,,,,,,,,,,,,,,,,,,,,,,,,,,,,,,,,,,,,,,,,,,,,,,,,,,,,,,,,,,,,,,,,,,,,,
,,,,,"if the frame color is present in the scene, press 'P'.","otherwise, press 'Q'.",NaN,each image will be presented for four seconds.,NaN,please respond during this time.,NaN,press SPACE to continue,Empty.png,119,1,2022-11-10_13h15.33.535,Online_SceneSrcMD_E,2020.2.10,MacIntel,60,,,0,3,3,3,1,,,,,,,,,,,,,,,,,,,,,,,,,,,,,,,,,,,,,,,,,,,,,,,,,,,,,,,,,,,,,,,,,,,,,,,,,,,,,,,,,,
,,,,,NaN,NaN,NaN,three blocks of images will be presented.,NaN,"after each block, you will have the option to take a short break.",NaN,press SPACE to continue,Empty.png,119,1,2022-11-10_13h15.33.535,Online_SceneSrcMD_E,2020.2.10,MacIntel,60,,,0,4,4,4,1,,,,,,,,,,,,,,,,,,,,,,,,,,,,,,,,,,,,,,,,,,,,,,,,,,,,,,,,,,,,,,,,,,,,,,,,,,,,,,,,,,
,,,,,some of the images will portray scenes with emotional content.,NaN,NaN,if you become uncomfortable please remember that you can leave the experiment at any point without penalty.,NaN,NaN,NaN,press SPACE to continue,Empty.png,119,1,2022-11-10_13h15.33.535,Online_SceneSrcMD_E,2020.2.10,MacIntel,60,,,0,5,5,5,1,,,,,,,,,,,,,,,,,,,,,,,,,,,,,,,,,,,,,,,,,,,,,,,,,,,,,,,,,,,,,,,,,,,,,,,,,,,,,,,,,,
,,,,,example of an image depicting a scene with emotional content:,NaN,NaN,NaN,NaN,NaN,'P' would be the correct response as blue appears in the scene.,press SPACE to continue,TS08.png,119,1,2022-11-10_13h15.33.535,Online_SceneSrcMD_E,2020.2.10,MacIntel,60,,,0,6,6,6,1,,,,,,,,,,,,,,,,,,,,,,,,,,,,,,,,,,,,,,,,,,,,,,,,,,,,,,,,,,,,,,,,,,,,,,,,,,,,,,,,,,
,,,,,example of an image depicting a scene with neutral content:,NaN,NaN,NaN,NaN,NaN,'Q' would be the correct response as red does not appear in the scene.,press SPACE to continue,TS06.png,119,1,2022-11-10_13h15.33.535,Online_SceneSrcMD_E,2020.2.10,MacIntel,60,,,0,7,7,7,1,,,,,,,,,,,,,,,,,,,,,,,,,,,,,,,,,,,,,,,,,,,,,,,,,,,,,,,,,,,,,,,,,,,,,,,,,,,,,,,,,,
,,,,,NaN,NaN,NaN,"after seeing both blocks of images, you will complete a symbol categorization task.",NaN,NaN,NaN,press SPACE to continue,Empty.png,119,1,2022-11-10_13h15.33.535,Online_SceneSrcMD_E,2020.2.10,MacIntel,60,,,0,8,8,8,1,,,,,,,,,,,,,,,,,,,,,,,,,,,,,,,,,,,,,,,,,,,,,,,,,,,,,,,,,,,,,,,,,,,,,,,,,,,,,,,,,,
,,,,,"during the symbol categorization task, symbols will be presented on the screen one at a time.",NaN,NaN,NaN,NaN,your task is to view each symbol and report its identity.,NaN,press SPACE to continue,Empty.png,119,1,2022-11-10_13h15.33.535,Online_SceneSrcMD_E,2020.2.10,MacIntel,60,,,0,9,9,9,1,,,,,,,,,,,,,,,,,,,,,,,,,,,,,,,,,,,,,,,,,,,,,,,,,,,,,,,,,,,,,,,,,,,,,,,,,,,,,,,,,,
,,,,,"if you see a number, press 'N'","if you see an alphabetical letter, press 'A'",NaN,each symbol will be presented for three seconds.,NaN,please respond during this time.,NaN,press SPACE to continue,Empty.png,119,1,2022-11-10_13h15.33.535,Online_SceneSrcMD_E,2020.2.10,MacIntel,60,,,0,10,10,10,1,,,,,,,,,,,,,,,,,,,,,,,,,,,,,,,,,,,,,,,,,,,,,,,,,,,,,,,,,,,,,,,,,,,,,,,,,,,,,,,,,,
,,,,,NaN,NaN,NaN,three blocks will be presented -- there will be no breaks in between the three blocks.,NaN,NaN,NaN,press SPACE to continue,Empty.png,119,1,2022-11-10_13h15.33.535,Online_SceneSrcMD_E,2020.2.10,MacIntel,60,,,0,11,11,11,1,,,,,,,,,,,,,,,,,,,,,,,,,,,,,,,,,,,,,,,,,,,,,,,,,,,,,,,,,,,,,,,,,,,,,,,,,,,,,,,,,,
,,,,,example of a number:,NaN,NaN,NaN,3,NaN,'N' would be the correct response as the symbol is a number.,press SPACE to continue,Empty.png,119,1,2022-11-10_13h15.33.535,Online_SceneSrcMD_E,2020.2.10,MacIntel,60,,,0,12,12,12,1,,,,,,,,,,,,,,,,,,,,,,,,,,,,,,,,,,,,,,,,,,,,,,,,,,,,,,,,,,,,,,,,,,,,,,,,,,,,,,,,,,
,,,,,example of a alphabetical letter:,NaN,NaN,NaN,C,NaN,'A' would be the correct response as the symbol is a letter.,press SPACE to continue,Empty.png,119,1,2022-11-10_13h15.33.535,Online_SceneSrcMD_E,2020.2.10,MacIntel,60,,,0,13,13,13,1,,,,,,,,,,,,,,,,,,,,,,,,,,,,,,,,,,,,,,,,,,,,,,,,,,,,,,,,,,,,,,,,,,,,,,,,,,,,,,,,,,
,,,,,NaN,NaN,NaN,this is the end of the instructions,NaN,NaN,NaN,press SPACE to continue,Empty.png,119,1,2022-11-10_13h15.33.535,Online_SceneSrcMD_E,2020.2.10,MacIntel,60,,,0,14,14,14,1,,,,,,,,,,,,,,,,,,,,,,,,,,,,,,,,,,,,,,,,,,,,,,,,,,,,,,,,,,,,,,,,,,,,,,,,,,,,,,,,,,
,,,,,,,,,,,,,,119,1,2022-11-10_13h15.33.535,Online_SceneSrcMD_E,2020.2.10,MacIntel,60,,,,,,,,space,8.859,q,0,1.404,0,0,0,0,1,TS01.png,p,,,,,,,,,,,,,,,,,,,,,,,,,,,,,,,,,,,,,,,,,,,,,,,,,,,,,,,,,,,,,,,,,,,,,,
,,,,,,,,,,,,,,119,1,2022-11-10_13h15.33.535,Online_SceneSrcMD_E,2020.2.10,MacIntel,60,,,,,,,,,,q,0,1.835,0,1,1,1,1,TS02.png,p,,,,,,,,,,,,,,,,,,,,,,,,,,,,,,,,,,,,,,,,,,,,,,,,,,,,,,,,,,,,,,,,,,,,,,
,,,,,,,,,,,,,,119,1,2022-11-10_13h15.33.535,Online_SceneSrcMD_E,2020.2.10,MacIntel,60,,,,,,,,,,p,1,1.527,0,2,2,2,1,TS05.png,p,,,,,,,,,,,,,,,,,,,,,,,,,,,,,,,,,,,,,,,,,,,,,,,,,,,,,,,,,,,,,,,,,,,,,,
,,,,,,,,,,,,,,119,1,2022-11-10_13h15.33.535,Online_SceneSrcMD_E,2020.2.10,MacIntel,60,,,,,,,,,,q,1,0.995,0,3,3,3,1,TS06.png,q,,,,,,,,,,,,,,,,,,,,,,,,,,,,,,,,,,,,,,,,,,,,,,,,,,,,,,,,,,,,,,,,,,,,,,
,,,,,,,,,,,,,,119,1,2022-11-10_13h15.33.535,Online_SceneSrcMD_E,2020.2.10,MacIntel,60,,,,,,,,,,,,,,,,,,,,space,4.423,0,0,0,0,1,,,,,,,,,,,,,,,,,,,,,,,,,,,,,,,,,,,,,,,,,,,,,,,,,,,,,,,,,,,,,,,
,,,,,,,,,,,,,,119,1,2022-11-10_13h15.33.535,Online_SceneSrcMD_E,2020.2.10,MacIntel,60,,,,,,,,,,,,,,,,,,,,,,,,,,,0,0,0,0,1,PracticeONE.csv,,,,,,,,,,,,,,,,,,,,,,,,,,,,,,,,,,,,,,,,,,,,,,,,,,,,,,,,,
,,,,,,,,,,,,,,119,1,2022-11-10_13h15.33.535,Online_SceneSrcMD_E,2020.2.10,MacIntel,60,,,,,,,,,,p,1,2.755,0,0,0,0,1,TS03.png,p,,,,,,,,,,,,,,,,,,,,,,,,,,,,,,,,,,,,,,,,,,,,,,,,,,,,,,,,,,,,,,,,,,,,,,
,,,,,,,,,,,,,,119,1,2022-11-10_13h15.33.535,Online_SceneSrcMD_E,2020.2.10,MacIntel,60,,,,,,,,,,q,0,1.775,0,1,1,1,1,TS04.png,p,,,,,,,,,,,,,,,,,,,,,,,,,,,,,,,,,,,,,,,,,,,,,,,,,,,,,,,,,,,,,,,,,,,,,,
,,,,,,,,,,,,,,119,1,2022-11-10_13h15.33.535,Online_SceneSrcMD_E,2020.2.10,MacIntel,60,,,,,,,,,,q,0,1.936,0,2,2,2,1,TS07.png,p,,,,,,,,,,,,,,,,,,,,,,,,,,,,,,,,,,,,,,,,,,,,,,,,,,,,,,,,,,,,,,,,,,,,,,
,,,,,,,,,,,,,,119,1,2022-11-10_13h15.33.535,Online_SceneSrcMD_E,2020.2.10,MacIntel,60,,,,,,,,,,p,1,1.33,0,3,3,3,1,TS08.png,p,,,,,,,,,,,,,,,,,,,,,,,,,,,,,,,,,,,,,,,,,,,,,,,,,,,,,,,,,,,,,,,,,,,,,,
,,,,,,,,,,,,,,119,1,2022-11-10_13h15.33.535,Online_SceneSrcMD_E,2020.2.10,MacIntel,60,,,,,,,,,,,,,,,,,,,,,,,,,,,0,1,1,1,1,PracticeTWO.csv,,,,,,,,,,,,,,,,,,,,,,,,,,,,,,,,,,,,,,,,,,,,,,,,,,,,,,,,,
,,,,,,,,,,,,,,119,1,2022-11-10_13h15.33.535,Online_SceneSrcMD_E,2020.2.10,MacIntel,60,,,,,,,,,,,,,,,,,,,,,,,,,,,,,,,,,space,4.791,n,1,0.79,0,0,0,0,1,2,n,White,,,,,,,,,,,,,,,,,,,,,,,,,,,,,,,,,,,,,,,,,,,,
,,,,,,,,,,,,,,119,1,2022-11-10_13h15.33.535,Online_SceneSrcMD_E,2020.2.10,MacIntel,60,,,,,,,,,,,,,,,,,,,,,,,,,,,,,,,,,,,n,1,0.729,0,1,1,1,1,8,n,White,,,,,,,,,,,,,,,,,,,,,,,,,,,,,,,,,,,,,,,,,,,,
,,,,,,,,,,,,,,119,1,2022-11-10_13h15.33.535,Online_SceneSrcMD_E,2020.2.10,MacIntel,60,,,,,,,,,,,,,,,,,,,,,,,,,,,,,,,,,,,a,1,0.48,0,2,2,2,1,S,a,White,,,,,,,,,,,,,,,,,,,,,,,,,,,,,,,,,,,,,,,,,,,,
,,,,,,,,,,,,,,119,1,2022-11-10_13h15.33.535,Online_SceneSrcMD_E,2020.2.10,MacIntel,60,,,,,,,,,,,,,,,,,,,,,,,,,,,,,,,,,,,a,1,0.457,0,3,3,3,1,J,a,White,,,,,,,,,,,,,,,,,,,,,,,,,,,,,,,,,,,,,,,,,,,,
,,,,,,,,,,,,,,119,1,2022-11-10_13h15.33.535,Online_SceneSrcMD_E,2020.2.10,MacIntel,60,,,,,,,,,,,,,,,,,,,,,,,,,,,,,,,,,,,n,1,0.625,0,4,4,4,1,6,n,White,,,,,,,,,,,,,,,,,,,,,,,,,,,,,,,,,,,,,,,,,,,,
,,,,,,,,,,,,,,119,1,2022-11-10_13h15.33.535,Online_SceneSrcMD_E,2020.2.10,MacIntel,60,,,,,,,,,,,,,,,,,,,,,,,,,,,,,,,,,,,,,,,,,,,,,,0,0,0,0,1,Practice_ZeroBlock.csv,Practice Block 1,,,,,,,,,,,,,,,,,,,,,,,,,,,,,,,,,,,,,
,,,,,,,,,,,,,,119,1,2022-11-10_13h15.33.535,Online_SceneSrcMD_E,2020.2.10,MacIntel,60,,,,,,,,,,,,,,,,,,,,,,,,,,,,,,,,,,,a,1,1.206,0,0,0,0,1,F,a,White,,,,,,,,,,,,,,,,,,,,,,,,,,,,,,,,,,,,,,,,,,,,
,,,,,,,,,,,,,,119,1,2022-11-10_13h15.33.535,Online_SceneSrcMD_E,2020.2.10,MacIntel,60,,,,,,,,,,,,,,,,,,,,,,,,,,,,,,,,,,,a,1,0.743,0,1,1,1,1,H,a,White,,,,,,,,,,,,,,,,,,,,,,,,,,,,,,,,,,,,,,,,,,,,
,,,,,,,,,,,,,,119,1,2022-11-10_13h15.33.535,Online_SceneSrcMD_E,2020.2.10,MacIntel,60,,,,,,,,,,,,,,,,,,,,,,,,,,,,,,,,,,,a,1,0.573,0,2,2,2,1,X,a,White,,,,,,,,,,,,,,,,,,,,,,,,,,,,,,,,,,,,,,,,,,,,
,,,,,,,,,,,,,,119,1,2022-11-10_13h15.33.535,Online_SceneSrcMD_E,2020.2.10,MacIntel,60,,,,,,,,,,,,,,,,,,,,,,,,,,,,,,,,,,,n,1,0.409,0,3,3,3,1,5,n,White,,,,,,,,,,,,,,,,,,,,,,,,,,,,,,,,,,,,,,,,,,,,
,,,,,,,,,,,,,,119,1,2022-11-10_13h15.33.535,Online_SceneSrcMD_E,2020.2.10,MacIntel,60,,,,,,,,,,,,,,,,,,,,,,,,,,,,,,,,,,,n,1,0.476,0,4,4,4,1,1,n,White,,,,,,,,,,,,,,,,,,,,,,,,,,,,,,,,,,,,,,,,,,,,
,,,,,,,,,,,,,,119,1,2022-11-10_13h15.33.535,Online_SceneSrcMD_E,2020.2.10,MacIntel,60,,,,,,,,,,,,,,,,,,,,,,,,,,,,,,,,,,,,,,,,,,,,,,0,1,1,1,1,Practice_OneBlock.csv,Practice Block 2,,,,,,,,,,,,,,,,,,,,,,,,,,,,,,,,,,,,,
,,,,,,,,,,,,,,119,1,2022-11-10_13h15.33.535,Online_SceneSrcMD_E,2020.2.10,MacIntel,60,,,,,,,,,,,,,,,,,,,,,,,,,,,,,,,,,,,n,1,0.624,0,0,0,0,1,2,n,White,,,,,,,,,,,,,,,,,,,,,,,,,,,,,,,,,,,,,,,,,,,,
,,,,,,,,,,,,,,119,1,2022-11-10_13h15.33.535,Online_SceneSrcMD_E,2020.2.10,MacIntel,60,,,,,,,,,,,,,,,,,,,,,,,,,,,,,,,,,,,a,1,0.677,0,1,1,1,1,V,a,White,,,,,,,,,,,,,,,,,,,,,,,,,,,,,,,,,,,,,,,,,,,,
,,,,,,,,,,,,,,119,1,2022-11-10_13h15.33.535,Online_SceneSrcMD_E,2020.2.10,MacIntel,60,,,,,,,,,,,,,,,,,,,,,,,,,,,,,,,,,,,n,1,0.592,0,2,2,2,1,5,n,White,,,,,,,,,,,,,,,,,,,,,,,,,,,,,,,,,,,,,,,,,,,,
,,,,,,,,,,,,,,119,1,2022-11-10_13h15.33.535,Online_SceneSrcMD_E,2020.2.10,MacIntel,60,,,,,,,,,,,,,,,,,,,,,,,,,,,,,,,,,,,n,1,1.023,0,3,3,3,1,2,n,White,,,,,,,,,,,,,,,,,,,,,,,,,,,,,,,,,,,,,,,,,,,,
,,,,,,,,,,,,,,119,1,2022-11-10_13h15.33.535,Online_SceneSrcMD_E,2020.2.10,MacIntel,60,,,,,,,,,,,,,,,,,,,,,,,,,,,,,,,,,,,a,1,0.627,0,4,4,4,1,F,a,White,,,,,,,,,,,,,,,,,,,,,,,,,,,,,,,,,,,,,,,,,,,,
,,,,,,,,,,,,,,119,1,2022-11-10_13h15.33.535,Online_SceneSrcMD_E,2020.2.10,MacIntel,60,,,,,,,,,,,,,,,,,,,,,,,,,,,,,,,,,,,,,,,,,,,,,,0,2,2,2,1,Practice_TwoBlock.csv,Practice Block 3,,,,,,,,,,,,,,,,,,,,,,,,,,,,,,,,,,,,,
,,,,,,,,,,,,,,119,1,2022-11-10_13h15.33.535,Online_SceneSrcMD_E,2020.2.10,MacIntel,60,,,,,,,,space,6.067,q,1,1.882,,,,,,N1-4605comp.png,q,,,,,,,,,,,,,,,,,,,,,,,,,,,,,,,,,,0,0,0,0,1,,,,,,,,,,,,,,,,,,,,,,,,,,,,,,,,
,,,,,,,,,,,,,,119,1,2022-11-10_13h15.33.535,Online_SceneSrcMD_E,2020.2.10,MacIntel,60,,,,,,,,,,q,0,1.888,,,,,,E1-3150comp.png,p,,,,,,,,,,,,,,,,,,,,,,,,,,,,,,,,,,0,1,1,1,1,,,,,,,,,,,,,,,,,,,,,,,,,,,,,,,,
,,,,,,,,,,,,,,119,1,2022-11-10_13h15.33.535,Online_SceneSrcMD_E,2020.2.10,MacIntel,60,,,,,,,,,,q,1,2.696,,,,,,N1-7640comp.png,q,,,,,,,,,,,,,,,,,,,,,,,,,,,,,,,,,,0,2,2,2,1,,,,,,,,,,,,,,,,,,,,,,,,,,,,,,,,
,,,,,,,,,,,,,,119,1,2022-11-10_13h15.33.535,Online_SceneSrcMD_E,2020.2.10,MacIntel,60,,,,,,,,,,q,1,1.95,,,,,,E1-1310comp.png,q,,,,,,,,,,,,,,,,,,,,,,,,,,,,,,,,,,0,3,3,3,1,,,,,,,,,,,,,,,,,,,,,,,,,,,,,,,,
,,,,,,,,,,,,,,119,1,2022-11-10_13h15.33.535,Online_SceneSrcMD_E,2020.2.10,MacIntel,60,,,,,,,,,,q,0,2.72,,,,,,N1-5994comp.png,p,,,,,,,,,,,,,,,,,,,,,,,,,,,,,,,,,,0,4,4,4,1,,,,,,,,,,,,,,,,,,,,,,,,,,,,,,,,
,,,,,,,,,,,,,,119,1,2022-11-10_13h15.33.535,Online_SceneSrcMD_E,2020.2.10,MacIntel,60,,,,,,,,,,p,1,1.953,,,,,,E1-6244comp.png,p,,,,,,,,,,,,,,,,,,,,,,,,,,,,,,,,,,0,5,5,5,1,,,,,,,,,,,,,,,,,,,,,,,,,,,,,,,,
,,,,,,,,,,,,,,119,1,2022-11-10_13h15.33.535,Online_SceneSrcMD_E,2020.2.10,MacIntel,60,,,,,,,,,,p,1,1.687,,,,,,N1-5455comp.png,p,,,,,,,,,,,,,,,,,,,,,,,,,,,,,,,,,,0,6,6,6,1,,,,,,,,,,,,,,,,,,,,,,,,,,,,,,,,
,,,,,,,,,,,,,,119,1,2022-11-10_13h15.33.535,Online_SceneSrcMD_E,2020.2.10,MacIntel,60,,,,,,,,,,p,1,1.039,,,,,,N1-1121comp.png,p,,,,,,,,,,,,,,,,,,,,,,,,,,,,,,,,,,0,7,7,7,1,,,,,,,,,,,,,,,,,,,,,,,,,,,,,,,,
,,,,,,,,,,,,,,119,1,2022-11-10_13h15.33.535,Online_SceneSrcMD_E,2020.2.10,MacIntel,60,,,,,,,,,,q,1,2.169,,,,,,E1-9254comp.png,q,,,,,,,,,,,,,,,,,,,,,,,,,,,,,,,,,,0,8,8,8,1,,,,,,,,,,,,,,,,,,,,,,,,,,,,,,,,
,,,,,,,,,,,,,,119,1,2022-11-10_13h15.33.535,Online_SceneSrcMD_E,2020.2.10,MacIntel,60,,,,,,,,,,p,1,1.887,,,,,,N1-2190comp.png,p,,,,,,,,,,,,,,,,,,,,,,,,,,,,,,,,,,0,9,9,9,1,,,,,,,,,,,,,,,,,,,,,,,,,,,,,,,,
,,,,,,,,,,,,,,119,1,2022-11-10_13h15.33.535,Online_SceneSrcMD_E,2020.2.10,MacIntel,60,,,,,,,,,,q,0,1.944,,,,,,E1-6571comp.png,p,,,,,,,,,,,,,,,,,,,,,,,,,,,,,,,,,,0,10,10,10,1,,,,,,,,,,,,,,,,,,,,,,,,,,,,,,,,
,,,,,,,,,,,,,,119,1,2022-11-10_13h15.33.535,Online_SceneSrcMD_E,2020.2.10,MacIntel,60,,,,,,,,,,q,1,1.656,,,,,,N1-1812comp.png,q,,,,,,,,,,,,,,,,,,,,,,,,,,,,,,,,,,0,11,11,11,1,,,,,,,,,,,,,,,,,,,,,,,,,,,,,,,,
,,,,,,,,,,,,,,119,1,2022-11-10_13h15.33.535,Online_SceneSrcMD_E,2020.2.10,MacIntel,60,,,,,,,,,,q,1,1.728,,,,,,E1-2053comp.png,q,,,,,,,,,,,,,,,,,,,,,,,,,,,,,,,,,,0,12,12,12,1,,,,,,,,,,,,,,,,,,,,,,,,,,,,,,,,
,,,,,,,,,,,,,,119,1,2022-11-10_13h15.33.535,Online_SceneSrcMD_E,2020.2.10,MacIntel,60,,,,,,,,,,p,1,1.251,,,,,,N1-2575comp.png,p,,,,,,,,,,,,,,,,,,,,,,,,,,,,,,,,,,0,13,13,13,1,,,,,,,,,,,,,,,,,,,,,,,,,,,,,,,,
,,,,,,,,,,,,,,119,1,2022-11-10_13h15.33.535,Online_SceneSrcMD_E,2020.2.10,MacIntel,60,,,,,,,,,,p,0,2.375,,,,,,E1-9180comp.png,q,,,,,,,,,,,,,,,,,,,,,,,,,,,,,,,,,,0,14,14,14,1,,,,,,,,,,,,,,,,,,,,,,,,,,,,,,,,
,,,,,,,,,,,,,,119,1,2022-11-10_13h15.33.535,Online_SceneSrcMD_E,2020.2.10,MacIntel,60,,,,,,,,,,p,1,0.895,,,,,,N1-8460comp.png,p,,,,,,,,,,,,,,,,,,,,,,,,,,,,,,,,,,0,15,15,15,1,,,,,,,,,,,,,,,,,,,,,,,,,,,,,,,,
,,,,,,,,,,,,,,119,1,2022-11-10_13h15.33.535,Online_SceneSrcMD_E,2020.2.10,MacIntel,60,,,,,,,,,,q,0,1.569,,,,,,E1-9252comp.png,p,,,,,,,,,,,,,,,,,,,,,,,,,,,,,,,,,,0,16,16,16,1,,,,,,,,,,,,,,,,,,,,,,,,,,,,,,,,
,,,,,,,,,,,,,,119,1,2022-11-10_13h15.33.535,Online_SceneSrcMD_E,2020.2.10,MacIntel,60,,,,,,,,,,p,1,1.159,,,,,,E1-9911comp.png,p,,,,,,,,,,,,,,,,,,,,,,,,,,,,,,,,,,0,17,17,17,1,,,,,,,,,,,,,,,,,,,,,,,,,,,,,,,,
,,,,,,,,,,,,,,119,1,2022-11-10_13h15.33.535,Online_SceneSrcMD_E,2020.2.10,MacIntel,60,,,,,,,,,,q,0,1.774,,,,,,N1-2393comp.png,p,,,,,,,,,,,,,,,,,,,,,,,,,,,,,,,,,,0,18,18,18,1,,,,,,,,,,,,,,,,,,,,,,,,,,,,,,,,
,,,,,,,,,,,,,,119,1,2022-11-10_13h15.33.535,Online_SceneSrcMD_E,2020.2.10,MacIntel,60,,,,,,,,,,p,1,1.759,,,,,,E1-3015comp.png,p,,,,,,,,,,,,,,,,,,,,,,,,,,,,,,,,,,0,19,19,19,1,,,,,,,,,,,,,,,,,,,,,,,,,,,,,,,,
,,,,,,,,,,,,,,119,1,2022-11-10_13h15.33.535,Online_SceneSrcMD_E,2020.2.10,MacIntel,60,,,,,,,,,,,,,,,,,,,,,,,,,,,,,,,,,,,,,,,,,,,,,,,,,,,,,,,,,,"[""1"",""3"",""4"",""5""]","[12.692999999999984,26.416999999999916,27.105999999999995,27.921999999999798]",space,20.704,0,0,0,0,1,Attn_Colored.png,,,,,,,,,,,,,,,,,,,,,,
,,,,,,,,,,,,,,119,1,2022-11-10_13h15.33.535,Online_SceneSrcMD_E,2020.2.10,MacIntel,60,,,,,,,,,,,,,,,,,,,,,,,,,,,,,,,,,,,,,,,,,,,,,,,,,,,,,,,,,,,,,,,,,,,,0,0,0,0,1,BlockOne.csv,ColorCheck.csv,,,,,,,,,,,,,,,
,,,,,,,,,,,,,,119,1,2022-11-10_13h15.33.535,Online_SceneSrcMD_E,2020.2.10,MacIntel,60,,,,,,,,,,q,1,2.369,,,,,,N1-5471comp.png,q,,,,,,,,,,,,,,,,,,,,,,,,,,,,,,,,,,0,0,0,0,1,,,,,,,,,,,,,,,,,,,,,,,,,,,,,,,,
,,,,,,,,,,,,,,119,1,2022-11-10_13h15.33.535,Online_SceneSrcMD_E,2020.2.10,MacIntel,60,,,,,,,,,,q,1,2.119,,,,,,E1-9830comp.png,q,,,,,,,,,,,,,,,,,,,,,,,,,,,,,,,,,,0,1,1,1,1,,,,,,,,,,,,,,,,,,,,,,,,,,,,,,,,
,,,,,,,,,,,,,,119,1,2022-11-10_13h15.33.535,Online_SceneSrcMD_E,2020.2.10,MacIntel,60,,,,,,,,,,p,1,2.387,,,,,,N1-2500comp.png,p,,,,,,,,,,,,,,,,,,,,,,,,,,,,,,,,,,0,2,2,2,1,,,,,,,,,,,,,,,,,,,,,,,,,,,,,,,,
,,,,,,,,,,,,,,119,1,2022-11-10_13h15.33.535,Online_SceneSrcMD_E,2020.2.10,MacIntel,60,,,,,,,,,,p,1,1.723,,,,,,E1-9253comp.png,p,,,,,,,,,,,,,,,,,,,,,,,,,,,,,,,,,,0,3,3,3,1,,,,,,,,,,,,,,,,,,,,,,,,,,,,,,,,
,,,,,,,,,,,,,,119,1,2022-11-10_13h15.33.535,Online_SceneSrcMD_E,2020.2.10,MacIntel,60,,,,,,,,,,p,0,3.107,,,,,,N1-1670comp.png,q,,,,,,,,,,,,,,,,,,,,,,,,,,,,,,,,,,0,4,4,4,1,,,,,,,,,,,,,,,,,,,,,,,,,,,,,,,,
,,,,,,,,,,,,,,119,1,2022-11-10_13h15.33.535,Online_SceneSrcMD_E,2020.2.10,MacIntel,60,,,,,,,,,,q,1,1.595,,,,,,E1-3220comp.png,q,,,,,,,,,,,,,,,,,,,,,,,,,,,,,,,,,,0,5,5,5,1,,,,,,,,,,,,,,,,,,,,,,,,,,,,,,,,
,,,,,,,,,,,,,,119,1,2022-11-10_13h15.33.535,Online_SceneSrcMD_E,2020.2.10,MacIntel,60,,,,,,,,,,p,1,1.584,,,,,,N1-2597comp.png,p,,,,,,,,,,,,,,,,,,,,,,,,,,,,,,,,,,0,6,6,6,1,,,,,,,,,,,,,,,,,,,,,,,,,,,,,,,,
,,,,,,,,,,,,,,119,1,2022-11-10_13h15.33.535,Online_SceneSrcMD_E,2020.2.10,MacIntel,60,,,,,,,,,,q,1,1.687,,,,,,E1-2800comp.png,q,,,,,,,,,,,,,,,,,,,,,,,,,,,,,,,,,,0,7,7,7,1,,,,,,,,,,,,,,,,,,,,,,,,,,,,,,,,
,,,,,,,,,,,,,,119,1,2022-11-10_13h15.33.535,Online_SceneSrcMD_E,2020.2.10,MacIntel,60,,,,,,,,,,q,1,1.892,,,,,,E1-3068comp.png,q,,,,,,,,,,,,,,,,,,,,,,,,,,,,,,,,,,0,8,8,8,1,,,,,,,,,,,,,,,,,,,,,,,,,,,,,,,,
,,,,,,,,,,,,,,119,1,2022-11-10_13h15.33.535,Online_SceneSrcMD_E,2020.2.10,MacIntel,60,,,,,,,,,,q,1,1.919,,,,,,N1-5410comp.png,q,,,,,,,,,,,,,,,,,,,,,,,,,,,,,,,,,,0,9,9,9,1,,,,,,,,,,,,,,,,,,,,,,,,,,,,,,,,
,,,,,,,,,,,,,,119,1,2022-11-10_13h15.33.535,Online_SceneSrcMD_E,2020.2.10,MacIntel,60,,,,,,,,,,p,1,1.154,,,,,,N1-5390comp.png,p,,,,,,,,,,,,,,,,,,,,,,,,,,,,,,,,,,0,10,10,10,1,,,,,,,,,,,,,,,,,,,,,,,,,,,,,,,,
,,,,,,,,,,,,,,119,1,2022-11-10_13h15.33.535,Online_SceneSrcMD_E,2020.2.10,MacIntel,60,,,,,,,,,,p,0,2.42,,,,,,E1-3160comp.png,q,,,,,,,,,,,,,,,,,,,,,,,,,,,,,,,,,,0,11,11,11,1,,,,,,,,,,,,,,,,,,,,,,,,,,,,,,,,
,,,,,,,,,,,,,,119,1,2022-11-10_13h15.33.535,Online_SceneSrcMD_E,2020.2.10,MacIntel,60,,,,,,,,,,q,0,3.32,,,,,,N1-7495comp.png,p,,,,,,,,,,,,,,,,,,,,,,,,,,,,,,,,,,0,12,12,12,1,,,,,,,,,,,,,,,,,,,,,,,,,,,,,,,,
,,,,,,,,,,,,,,119,1,2022-11-10_13h15.33.535,Online_SceneSrcMD_E,2020.2.10,MacIntel,60,,,,,,,,,,q,1,2.643,,,,,,E1-2717comp.png,q,,,,,,,,,,,,,,,,,,,,,,,,,,,,,,,,,,0,13,13,13,1,,,,,,,,,,,,,,,,,,,,,,,,,,,,,,,,
,,,,,,,,,,,,,,119,1,2022-11-10_13h15.33.535,Online_SceneSrcMD_E,2020.2.10,MacIntel,60,,,,,,,,,,q,0,2.636,,,,,,E1-1525comp.png,p,,,,,,,,,,,,,,,,,,,,,,,,,,,,,,,,,,0,14,14,14,1,,,,,,,,,,,,,,,,,,,,,,,,,,,,,,,,
,,,,,,,,,,,,,,119,1,2022-11-10_13h15.33.535,Online_SceneSrcMD_E,2020.2.10,MacIntel,60,,,,,,,,,,p,1,1.885,,,,,,N1-2605comp.png,p,,,,,,,,,,,,,,,,,,,,,,,,,,,,,,,,,,0,15,15,15,1,,,,,,,,,,,,,,,,,,,,,,,,,,,,,,,,
,,,,,,,,,,,,,,119,1,2022-11-10_13h15.33.535,Online_SceneSrcMD_E,2020.2.10,MacIntel,60,,,,,,,,,,p,1,1.125,,,,,,N1-2870comp.png,p,,,,,,,,,,,,,,,,,,,,,,,,,,,,,,,,,,0,16,16,16,1,,,,,,,,,,,,,,,,,,,,,,,,,,,,,,,,
,,,,,,,,,,,,,,119,1,2022-11-10_13h15.33.535,Online_SceneSrcMD_E,2020.2.10,MacIntel,60,,,,,,,,,,p,1,2.773,,,,,,E1-2352_2comp.png,p,,,,,,,,,,,,,,,,,,,,,,,,,,,,,,,,,,0,17,17,17,1,,,,,,,,,,,,,,,,,,,,,,,,,,,,,,,,
,,,,,,,,,,,,,,119,1,2022-11-10_13h15.33.535,Online_SceneSrcMD_E,2020.2.10,MacIntel,60,,,,,,,,,,q,1,2.157,,,,,,N1-2383comp.png,q,,,,,,,,,,,,,,,,,,,,,,,,,,,,,,,,,,0,18,18,18,1,,,,,,,,,,,,,,,,,,,,,,,,,,,,,,,,
,,,,,,,,,,,,,,119,1,2022-11-10_13h15.33.535,Online_SceneSrcMD_E,2020.2.10,MacIntel,60,,,,,,,,,,q,1,2.535,,,,,,E1-9600comp.png,q,,,,,,,,,,,,,,,,,,,,,,,,,,,,,,,,,,0,19,19,19,1,,,,,,,,,,,,,,,,,,,,,,,,,,,,,,,,
,,,,,,,,,,,,,,119,1,2022-11-10_13h15.33.535,Online_SceneSrcMD_E,2020.2.10,MacIntel,60,,,,,,,,,,,,,,,,,,,,,,,,,,,,,,,,,,,,,,,,,,,,,,,,,,,,,,,,,,,,space,28.009,,,,,,,,,,,,,,0,0,0,0,1,,,,,,,,,,
,,,,,,,,,,,,,,119,1,2022-11-10_13h15.33.535,Online_SceneSrcMD_E,2020.2.10,MacIntel,60,,,,,,,,,,,,,,,,,,,,,,,,,,,,,,,,,,,,,,,,,,,,,,,,,,,,,,,,,,,,,,,,,,,,0,1,1,1,1,BlockTwo.csv,ColorCheck.csv,,,,,,,,,,,,,,,
,,,,,,,,,,,,,,119,1,2022-11-10_13h15.33.535,Online_SceneSrcMD_E,2020.2.10,MacIntel,60,,,,,,,,,,p,1,2.769,,,,,,E1-3280comp.png,p,,,,,,,,,,,,,,,,,,,,,,,,,,,,,,,,,,0,0,0,0,1,,,,,,,,,,,,,,,,,,,,,,,,,,,,,,,,
,,,,,,,,,,,,,,119,1,2022-11-10_13h15.33.535,Online_SceneSrcMD_E,2020.2.10,MacIntel,60,,,,,,,,,,q,1,2.154,,,,,,N1-9070comp.png,q,,,,,,,,,,,,,,,,,,,,,,,,,,,,,,,,,,0,1,1,1,1,,,,,,,,,,,,,,,,,,,,,,,,,,,,,,,,
,,,,,,,,,,,,,,119,1,2022-11-10_13h15.33.535,Online_SceneSrcMD_E,2020.2.10,MacIntel,60,,,,,,,,,,p,1,2.075,,,,,,N1-8041comp.png,p,,,,,,,,,,,,,,,,,,,,,,,,,,,,,,,,,,0,2,2,2,1,,,,,,,,,,,,,,,,,,,,,,,,,,,,,,,,
,,,,,,,,,,,,,,119,1,2022-11-10_13h15.33.535,Online_SceneSrcMD_E,2020.2.10,MacIntel,60,,,,,,,,,,p,1,1.58,,,,,,E1-3550comp.png,p,,,,,,,,,,,,,,,,,,,,,,,,,,,,,,,,,,0,3,3,3,1,,,,,,,,,,,,,,,,,,,,,,,,,,,,,,,,
,,,,,,,,,,,,,,119,1,2022-11-10_13h15.33.535,Online_SceneSrcMD_E,2020.2.10,MacIntel,60,,,,,,,,,,p,1,1.139,,,,,,N1-7503comp.png,p,,,,,,,,,,,,,,,,,,,,,,,,,,,,,,,,,,0,4,4,4,1,,,,,,,,,,,,,,,,,,,,,,,,,,,,,,,,
,,,,,,,,,,,,,,119,1,2022-11-10_13h15.33.535,Online_SceneSrcMD_E,2020.2.10,MacIntel,60,,,,,,,,,,p,1,1.557,,,,,,E1-3168comp.png,p,,,,,,,,,,,,,,,,,,,,,,,,,,,,,,,,,,0,5,5,5,1,,,,,,,,,,,,,,,,,,,,,,,,,,,,,,,,
,,,,,,,,,,,,,,119,1,2022-11-10_13h15.33.535,Online_SceneSrcMD_E,2020.2.10,MacIntel,60,,,,,,,,,,p,1,2.787,,,,,,N1-8311comp.png,p,,,,,,,,,,,,,,,,,,,,,,,,,,,,,,,,,,0,6,6,6,1,,,,,,,,,,,,,,,,,,,,,,,,,,,,,,,,
,,,,,,,,,,,,,,119,1,2022-11-10_13h15.33.535,Online_SceneSrcMD_E,2020.2.10,MacIntel,60,,,,,,,,,,p,1,1.642,,,,,,N1-5731comp.png,p,,,,,,,,,,,,,,,,,,,,,,,,,,,,,,,,,,0,7,7,7,1,,,,,,,,,,,,,,,,,,,,,,,,,,,,,,,,
,,,,,,,,,,,,,,119,1,2022-11-10_13h15.33.535,Online_SceneSrcMD_E,2020.2.10,MacIntel,60,,,,,,,,,,q,1,2.052,,,,,,E1-3061comp.png,q,,,,,,,,,,,,,,,,,,,,,,,,,,,,,,,,,,0,8,8,8,1,,,,,,,,,,,,,,,,,,,,,,,,,,,,,,,,
,,,,,,,,,,,,,,119,1,2022-11-10_13h15.33.535,Online_SceneSrcMD_E,2020.2.10,MacIntel,60,,,,,,,,,,p,0,3.685,,,,,,E1-6212comp.png,q,,,,,,,,,,,,,,,,,,,,,,,,,,,,,,,,,,0,9,9,9,1,,,,,,,,,,,,,,,,,,,,,,,,,,,,,,,,
,,,,,,,,,,,,,,119,1,2022-11-10_13h15.33.535,Online_SceneSrcMD_E,2020.2.10,MacIntel,60,,,,,,,,,,q,1,1.826,,,,,,N1-1947comp.png,q,,,,,,,,,,,,,,,,,,,,,,,,,,,,,,,,,,0,10,10,10,1,,,,,,,,,,,,,,,,,,,,,,,,,,,,,,,,
,,,,,,,,,,,,,,119,1,2022-11-10_13h15.33.535,Online_SceneSrcMD_E,2020.2.10,MacIntel,60,,,,,,,,,,q,1,1.611,,,,,,E1-1274comp.png,q,,,,,,,,,,,,,,,,,,,,,,,,,,,,,,,,,,0,11,11,11,1,,,,,,,,,,,,,,,,,,,,,,,,,,,,,,,,
,,,,,,,,,,,,,,119,1,2022-11-10_13h15.33.535,Online_SceneSrcMD_E,2020.2.10,MacIntel,60,,,,,,,,,,p,0,2.26,,,,,,E1-9561comp.png,q,,,,,,,,,,,,,,,,,,,,,,,,,,,,,,,,,,0,12,12,12,1,,,,,,,,,,,,,,,,,,,,,,,,,,,,,,,,
,,,,,,,,,,,,,,119,1,2022-11-10_13h15.33.535,Online_SceneSrcMD_E,2020.2.10,MacIntel,60,,,,,,,,,,p,1,3.795,,,,,,N1-2485comp.png,p,,,,,,,,,,,,,,,,,,,,,,,,,,,,,,,,,,0,13,13,13,1,,,,,,,,,,,,,,,,,,,,,,,,,,,,,,,,
,,,,,,,,,,,,,,119,1,2022-11-10_13h15.33.535,Online_SceneSrcMD_E,2020.2.10,MacIntel,60,,,,,,,,,,q,1,2.428,,,,,,E1-9250comp.png,q,,,,,,,,,,,,,,,,,,,,,,,,,,,,,,,,,,0,14,14,14,1,,,,,,,,,,,,,,,,,,,,,,,,,,,,,,,,
,,,,,,,,,,,,,,119,1,2022-11-10_13h15.33.535,Online_SceneSrcMD_E,2020.2.10,MacIntel,60,,,,,,,,,,p,1,1.26,,,,,,N1-2240comp.png,p,,,,,,,,,,,,,,,,,,,,,,,,,,,,,,,,,,0,15,15,15,1,,,,,,,,,,,,,,,,,,,,,,,,,,,,,,,,
,,,,,,,,,,,,,,119,1,2022-11-10_13h15.33.535,Online_SceneSrcMD_E,2020.2.10,MacIntel,60,,,,,,,,,,q,1,1.506,,,,,,N1-9210comp.png,q,,,,,,,,,,,,,,,,,,,,,,,,,,,,,,,,,,0,16,16,16,1,,,,,,,,,,,,,,,,,,,,,,,,,,,,,,,,
,,,,,,,,,,,,,,119,1,2022-11-10_13h15.33.535,Online_SceneSrcMD_E,2020.2.10,MacIntel,60,,,,,,,,,,p,1,1.189,,,,,,E1-9810comp.png,p,,,,,,,,,,,,,,,,,,,,,,,,,,,,,,,,,,0,17,17,17,1,,,,,,,,,,,,,,,,,,,,,,,,,,,,,,,,
,,,,,,,,,,,,,,119,1,2022-11-10_13h15.33.535,Online_SceneSrcMD_E,2020.2.10,MacIntel,60,,,,,,,,,,p,1,1.921,,,,,,E1-2691comp.png,p,,,,,,,,,,,,,,,,,,,,,,,,,,,,,,,,,,0,18,18,18,1,,,,,,,,,,,,,,,,,,,,,,,,,,,,,,,,
,,,,,,,,,,,,,,119,1,2022-11-10_13h15.33.535,Online_SceneSrcMD_E,2020.2.10,MacIntel,60,,,,,,,,,,p,1,2.19,,,,,,N1-2593comp.png,p,,,,,,,,,,,,,,,,,,,,,,,,,,,,,,,,,,0,19,19,19,1,,,,,,,,,,,,,,,,,,,,,,,,,,,,,,,,
,,,,,,,,,,,,,,119,1,2022-11-10_13h15.33.535,Online_SceneSrcMD_E,2020.2.10,MacIntel,60,,,,,,,,,,,,,,,,,,,,,,,,,,,,,,,,,,,,,,,,,,,,,,,,,,,,,,,,,,,,space,13.724,,,,,,,,,,,,,,0,0,0,0,1,,,,,,,,,,
,,,,,,,,,,,,,,119,1,2022-11-10_13h15.33.535,Online_SceneSrcMD_E,2020.2.10,MacIntel,60,,,,,,,,,,,,,,,,,,,,,,,,,,,,,,,,,,,,,,,,,,,,,,,,,,,,,,,,,,,,,,,,,,,,0,2,2,2,1,BlockThree.csv,ColorCheck.csv,,,,,,,,,,,,,,,
,,,,,,,,,,,,,,119,1,2022-11-10_13h15.33.535,Online_SceneSrcMD_E,2020.2.10,MacIntel,60,,,,,,,,,,,,,,,,,,,,,,,,,,,,,,,,,space,8.52,a,1,0.963,,,,,,E,a,White,,,,,,,,,,,,,,,,,,,,,,,,,,,,,,,,,,,0,0,0,0,1,,,,,
,,,,,,,,,,,,,,119,1,2022-11-10_13h15.33.535,Online_SceneSrcMD_E,2020.2.10,MacIntel,60,,,,,,,,,,,,,,,,,,,,,,,,,,,,,,,,,,,n,1,0.65,,,,,,1,n,White,,,,,,,,,,,,,,,,,,,,,,,,,,,,,,,,,,,0,1,1,1,1,,,,,
,,,,,,,,,,,,,,119,1,2022-11-10_13h15.33.535,Online_SceneSrcMD_E,2020.2.10,MacIntel,60,,,,,,,,,,,,,,,,,,,,,,,,,,,,,,,,,,,n,1,1.606,,,,,,6,n,White,,,,,,,,,,,,,,,,,,,,,,,,,,,,,,,,,,,0,2,2,2,1,,,,,
,,,,,,,,,,,,,,119,1,2022-11-10_13h15.33.535,Online_SceneSrcMD_E,2020.2.10,MacIntel,60,,,,,,,,,,,,,,,,,,,,,,,,,,,,,,,,,,,a,1,1.681,,,,,,O,a,White,,,,,,,,,,,,,,,,,,,,,,,,,,,,,,,,,,,0,3,3,3,1,,,,,
,,,,,,,,,,,,,,119,1,2022-11-10_13h15.33.535,Online_SceneSrcMD_E,2020.2.10,MacIntel,60,,,,,,,,,,,,,,,,,,,,,,,,,,,,,,,,,,,n,1,0.813,,,,,,5,n,White,,,,,,,,,,,,,,,,,,,,,,,,,,,,,,,,,,,0,4,4,4,1,,,,,
,,,,,,,,,,,,,,119,1,2022-11-10_13h15.33.535,Online_SceneSrcMD_E,2020.2.10,MacIntel,60,,,,,,,,,,,,,,,,,,,,,,,,,,,,,,,,,,,n,1,0.507,,,,,,7,n,White,,,,,,,,,,,,,,,,,,,,,,,,,,,,,,,,,,,0,5,5,5,1,,,,,
,,,,,,,,,,,,,,119,1,2022-11-10_13h15.33.535,Online_SceneSrcMD_E,2020.2.10,MacIntel,60,,,,,,,,,,,,,,,,,,,,,,,,,,,,,,,,,,,n,1,0.457,,,,,,8,n,White,,,,,,,,,,,,,,,,,,,,,,,,,,,,,,,,,,,0,6,6,6,1,,,,,
,,,,,,,,,,,,,,119,1,2022-11-10_13h15.33.535,Online_SceneSrcMD_E,2020.2.10,MacIntel,60,,,,,,,,,,,,,,,,,,,,,,,,,,,,,,,,,,,n,1,0.578,,,,,,6,n,White,,,,,,,,,,,,,,,,,,,,,,,,,,,,,,,,,,,0,7,7,7,1,,,,,
,,,,,,,,,,,,,,119,1,2022-11-10_13h15.33.535,Online_SceneSrcMD_E,2020.2.10,MacIntel,60,,,,,,,,,,,,,,,,,,,,,,,,,,,,,,,,,,,a,1,0.804,,,,,,Z,a,White,,,,,,,,,,,,,,,,,,,,,,,,,,,,,,,,,,,0,8,8,8,1,,,,,
,,,,,,,,,,,,,,119,1,2022-11-10_13h15.33.535,Online_SceneSrcMD_E,2020.2.10,MacIntel,60,,,,,,,,,,,,,,,,,,,,,,,,,,,,,,,,,,,a,1,0.96,,,,,,B,a,White,,,,,,,,,,,,,,,,,,,,,,,,,,,,,,,,,,,0,9,9,9,1,,,,,
,,,,,,,,,,,,,,119,1,2022-11-10_13h15.33.535,Online_SceneSrcMD_E,2020.2.10,MacIntel,60,,,,,,,,,,,,,,,,,,,,,,,,,,,,,,,,,,,n,1,0.704,,,,,,5,n,White,,,,,,,,,,,,,,,,,,,,,,,,,,,,,,,,,,,0,10,10,10,1,,,,,
,,,,,,,,,,,,,,119,1,2022-11-10_13h15.33.535,Online_SceneSrcMD_E,2020.2.10,MacIntel,60,,,,,,,,,,,,,,,,,,,,,,,,,,,,,,,,,,,a,1,0.744,,,,,,G,a,White,,,,,,,,,,,,,,,,,,,,,,,,,,,,,,,,,,,0,11,11,11,1,,,,,
,,,,,,,,,,,,,,119,1,2022-11-10_13h15.33.535,Online_SceneSrcMD_E,2020.2.10,MacIntel,60,,,,,,,,,,,,,,,,,,,,,,,,,,,,,,,,,,,n,1,0.657,,,,,,5,n,White,,,,,,,,,,,,,,,,,,,,,,,,,,,,,,,,,,,0,12,12,12,1,,,,,
,,,,,,,,,,,,,,119,1,2022-11-10_13h15.33.535,Online_SceneSrcMD_E,2020.2.10,MacIntel,60,,,,,,,,,,,,,,,,,,,,,,,,,,,,,,,,,,,a,1,0.656,,,,,,D,a,White,,,,,,,,,,,,,,,,,,,,,,,,,,,,,,,,,,,0,13,13,13,1,,,,,
,,,,,,,,,,,,,,119,1,2022-11-10_13h15.33.535,Online_SceneSrcMD_E,2020.2.10,MacIntel,60,,,,,,,,,,,,,,,,,,,,,,,,,,,,,,,,,,,a,1,0.949,,,,,,P,a,White,,,,,,,,,,,,,,,,,,,,,,,,,,,,,,,,,,,0,14,14,14,1,,,,,
,,,,,,,,,,,,,,119,1,2022-11-10_13h15.33.535,Online_SceneSrcMD_E,2020.2.10,MacIntel,60,,,,,,,,,,,,,,,,,,,,,,,,,,,,,,,,,,,n,1,0.577,,,,,,2,n,White,,,,,,,,,,,,,,,,,,,,,,,,,,,,,,,,,,,0,15,15,15,1,,,,,
,,,,,,,,,,,,,,119,1,2022-11-10_13h15.33.535,Online_SceneSrcMD_E,2020.2.10,MacIntel,60,,,,,,,,,,,,,,,,,,,,,,,,,,,,,,,,,,,n,1,0.573,,,,,,7,n,White,,,,,,,,,,,,,,,,,,,,,,,,,,,,,,,,,,,0,16,16,16,1,,,,,
,,,,,,,,,,,,,,119,1,2022-11-10_13h15.33.535,Online_SceneSrcMD_E,2020.2.10,MacIntel,60,,,,,,,,,,,,,,,,,,,,,,,,,,,,,,,,,,,n,1,1.024,,,,,,7,n,White,,,,,,,,,,,,,,,,,,,,,,,,,,,,,,,,,,,0,17,17,17,1,,,,,
,,,,,,,,,,,,,,119,1,2022-11-10_13h15.33.535,Online_SceneSrcMD_E,2020.2.10,MacIntel,60,,,,,,,,,,,,,,,,,,,,,,,,,,,,,,,,,,,a,1,0.782,,,,,,K,a,White,,,,,,,,,,,,,,,,,,,,,,,,,,,,,,,,,,,0,18,18,18,1,,,,,
,,,,,,,,,,,,,,119,1,2022-11-10_13h15.33.535,Online_SceneSrcMD_E,2020.2.10,MacIntel,60,,,,,,,,,,,,,,,,,,,,,,,,,,,,,,,,,,,a,1,1.089,,,,,,D,a,White,,,,,,,,,,,,,,,,,,,,,,,,,,,,,,,,,,,0,19,19,19,1,,,,,
,,,,,,,,,,,,,,119,1,2022-11-10_13h15.33.535,Online_SceneSrcMD_E,2020.2.10,MacIntel,60,,,,,,,,,,,,,,,,,,,,,,,,,,,,,,,,,,,a,1,1.183,,,,,,I,a,White,,,,,,,,,,,,,,,,,,,,,,,,,,,,,,,,,,,0,20,20,20,1,,,,,
,,,,,,,,,,,,,,119,1,2022-11-10_13h15.33.535,Online_SceneSrcMD_E,2020.2.10,MacIntel,60,,,,,,,,,,,,,,,,,,,,,,,,,,,,,,,,,,,n,1,0.724,,,,,,7,n,White,,,,,,,,,,,,,,,,,,,,,,,,,,,,,,,,,,,0,21,21,21,1,,,,,
,,,,,,,,,,,,,,119,1,2022-11-10_13h15.33.535,Online_SceneSrcMD_E,2020.2.10,MacIntel,60,,,,,,,,,,,,,,,,,,,,,,,,,,,,,,,,,,,a,1,0.856,,,,,,R,a,White,,,,,,,,,,,,,,,,,,,,,,,,,,,,,,,,,,,0,22,22,22,1,,,,,
,,,,,,,,,,,,,,119,1,2022-11-10_13h15.33.535,Online_SceneSrcMD_E,2020.2.10,MacIntel,60,,,,,,,,,,,,,,,,,,,,,,,,,,,,,,,,,,,a,1,0.839,,,,,,E,a,White,,,,,,,,,,,,,,,,,,,,,,,,,,,,,,,,,,,0,23,23,23,1,,,,,
,,,,,,,,,,,,,,119,1,2022-11-10_13h15.33.535,Online_SceneSrcMD_E,2020.2.10,MacIntel,60,,,,,,,,,,,,,,,,,,,,,,,,,,,,,,,,,,,n,1,0.591,,,,,,8,n,White,,,,,,,,,,,,,,,,,,,,,,,,,,,,,,,,,,,0,24,24,24,1,,,,,
,,,,,,,,,,,,,,119,1,2022-11-10_13h15.33.535,Online_SceneSrcMD_E,2020.2.10,MacIntel,60,,,,,,,,,,,,,,,,,,,,,,,,,,,,,,,,,,,a,1,0.776,,,,,,T,a,White,,,,,,,,,,,,,,,,,,,,,,,,,,,,,,,,,,,0,25,25,25,1,,,,,
,,,,,,,,,,,,,,119,1,2022-11-10_13h15.33.535,Online_SceneSrcMD_E,2020.2.10,MacIntel,60,,,,,,,,,,,,,,,,,,,,,,,,,,,,,,,,,,,n,1,0.811,,,,,,0,n,White,,,,,,,,,,,,,,,,,,,,,,,,,,,,,,,,,,,0,26,26,26,1,,,,,
,,,,,,,,,,,,,,119,1,2022-11-10_13h15.33.535,Online_SceneSrcMD_E,2020.2.10,MacIntel,60,,,,,,,,,,,,,,,,,,,,,,,,,,,,,,,,,,,a,1,1.036,,,,,,Q,a,White,,,,,,,,,,,,,,,,,,,,,,,,,,,,,,,,,,,0,27,27,27,1,,,,,
,,,,,,,,,,,,,,119,1,2022-11-10_13h15.33.535,Online_SceneSrcMD_E,2020.2.10,MacIntel,60,,,,,,,,,,,,,,,,,,,,,,,,,,,,,,,,,,,n,1,0.861,,,,,,1,n,White,,,,,,,,,,,,,,,,,,,,,,,,,,,,,,,,,,,0,28,28,28,1,,,,,
,,,,,,,,,,,,,,119,1,2022-11-10_13h15.33.535,Online_SceneSrcMD_E,2020.2.10,MacIntel,60,,,,,,,,,,,,,,,,,,,,,,,,,,,,,,,,,,,n,1,0.825,,,,,,2,n,White,,,,,,,,,,,,,,,,,,,,,,,,,,,,,,,,,,,0,29,29,29,1,,,,,
,,,,,,,,,,,,,,119,1,2022-11-10_13h15.33.535,Online_SceneSrcMD_E,2020.2.10,MacIntel,60,,,,,,,,,,,,,,,,,,,,,,,,,,,,,,,,,,,n,1,0.79,,,,,,3,n,White,,,,,,,,,,,,,,,,,,,,,,,,,,,,,,,,,,,0,30,30,30,1,,,,,
,,,,,,,,,,,,,,119,1,2022-11-10_13h15.33.535,Online_SceneSrcMD_E,2020.2.10,MacIntel,60,,,,,,,,,,,,,,,,,,,,,,,,,,,,,,,,,,,a,1,0.881,,,,,,L,a,White,,,,,,,,,,,,,,,,,,,,,,,,,,,,,,,,,,,0,31,31,31,1,,,,,
,,,,,,,,,,,,,,119,1,2022-11-10_13h15.33.535,Online_SceneSrcMD_E,2020.2.10,MacIntel,60,,,,,,,,,,,,,,,,,,,,,,,,,,,,,,,,,,,a,1,0.804,,,,,,Y,a,White,,,,,,,,,,,,,,,,,,,,,,,,,,,,,,,,,,,0,32,32,32,1,,,,,
,,,,,,,,,,,,,,119,1,2022-11-10_13h15.33.535,Online_SceneSrcMD_E,2020.2.10,MacIntel,60,,,,,,,,,,,,,,,,,,,,,,,,,,,,,,,,,,,n,1,0.79,,,,,,8,n,White,,,,,,,,,,,,,,,,,,,,,,,,,,,,,,,,,,,0,33,33,33,1,,,,,
,,,,,,,,,,,,,,119,1,2022-11-10_13h15.33.535,Online_SceneSrcMD_E,2020.2.10,MacIntel,60,,,,,,,,,,,,,,,,,,,,,,,,,,,,,,,,,,,,,,,,,,,,,,,,,,,ZeroBlock.csv,Block 1,,,,,,,,,,,,,,,,,,,,,,,,,,,,,,,,,0,0,0,0,1
,,,,,,,,,,,,,,119,1,2022-11-10_13h15.33.535,Online_SceneSrcMD_E,2020.2.10,MacIntel,60,,,,,,,,,,,,,,,,,,,,,,,,,,,,,,,,,,,n,1,0.965,,,,,,6,n,White,,,,,,,,,,,,,,,,,,,,,,,,,,,,,,,,,,,0,0,0,0,1,,,,,
,,,,,,,,,,,,,,119,1,2022-11-10_13h15.33.535,Online_SceneSrcMD_E,2020.2.10,MacIntel,60,,,,,,,,,,,,,,,,,,,,,,,,,,,,,,,,,,,n,1,0.658,,,,,,1,n,White,,,,,,,,,,,,,,,,,,,,,,,,,,,,,,,,,,,0,1,1,1,1,,,,,
,,,,,,,,,,,,,,119,1,2022-11-10_13h15.33.535,Online_SceneSrcMD_E,2020.2.10,MacIntel,60,,,,,,,,,,,,,,,,,,,,,,,,,,,,,,,,,,,a,1,0.709,,,,,,B,a,White,,,,,,,,,,,,,,,,,,,,,,,,,,,,,,,,,,,0,2,2,2,1,,,,,
,,,,,,,,,,,,,,119,1,2022-11-10_13h15.33.535,Online_SceneSrcMD_E,2020.2.10,MacIntel,60,,,,,,,,,,,,,,,,,,,,,,,,,,,,,,,,,,,n,1,0.625,,,,,,4,n,White,,,,,,,,,,,,,,,,,,,,,,,,,,,,,,,,,,,0,3,3,3,1,,,,,
,,,,,,,,,,,,,,119,1,2022-11-10_13h15.33.535,Online_SceneSrcMD_E,2020.2.10,MacIntel,60,,,,,,,,,,,,,,,,,,,,,,,,,,,,,,,,,,,n,1,0.606,,,,,,3,n,White,,,,,,,,,,,,,,,,,,,,,,,,,,,,,,,,,,,0,4,4,4,1,,,,,
,,,,,,,,,,,,,,119,1,2022-11-10_13h15.33.535,Online_SceneSrcMD_E,2020.2.10,MacIntel,60,,,,,,,,,,,,,,,,,,,,,,,,,,,,,,,,,,,n,1,0.515,,,,,,2,n,White,,,,,,,,,,,,,,,,,,,,,,,,,,,,,,,,,,,0,5,5,5,1,,,,,
,,,,,,,,,,,,,,119,1,2022-11-10_13h15.33.535,Online_SceneSrcMD_E,2020.2.10,MacIntel,60,,,,,,,,,,,,,,,,,,,,,,,,,,,,,,,,,,,n,1,0.726,,,,,,5,n,White,,,,,,,,,,,,,,,,,,,,,,,,,,,,,,,,,,,0,6,6,6,1,,,,,
,,,,,,,,,,,,,,119,1,2022-11-10_13h15.33.535,Online_SceneSrcMD_E,2020.2.10,MacIntel,60,,,,,,,,,,,,,,,,,,,,,,,,,,,,,,,,,,,n,1,0.482,,,,,,3,n,White,,,,,,,,,,,,,,,,,,,,,,,,,,,,,,,,,,,0,7,7,7,1,,,,,
,,,,,,,,,,,,,,119,1,2022-11-10_13h15.33.535,Online_SceneSrcMD_E,2020.2.10,MacIntel,60,,,,,,,,,,,,,,,,,,,,,,,,,,,,,,,,,,,a,1,0.607,,,,,,L,a,White,,,,,,,,,,,,,,,,,,,,,,,,,,,,,,,,,,,0,8,8,8,1,,,,,
,,,,,,,,,,,,,,119,1,2022-11-10_13h15.33.535,Online_SceneSrcMD_E,2020.2.10,MacIntel,60,,,,,,,,,,,,,,,,,,,,,,,,,,,,,,,,,,,n,1,0.576,,,,,,8,n,White,,,,,,,,,,,,,,,,,,,,,,,,,,,,,,,,,,,0,9,9,9,1,,,,,
,,,,,,,,,,,,,,119,1,2022-11-10_13h15.33.535,Online_SceneSrcMD_E,2020.2.10,MacIntel,60,,,,,,,,,,,,,,,,,,,,,,,,,,,,,,,,,,,a,1,0.816,,,,,,U,a,White,,,,,,,,,,,,,,,,,,,,,,,,,,,,,,,,,,,0,10,10,10,1,,,,,
,,,,,,,,,,,,,,119,1,2022-11-10_13h15.33.535,Online_SceneSrcMD_E,2020.2.10,MacIntel,60,,,,,,,,,,,,,,,,,,,,,,,,,,,,,,,,,,,n,1,0.556,,,,,,3,n,White,,,,,,,,,,,,,,,,,,,,,,,,,,,,,,,,,,,0,11,11,11,1,,,,,
,,,,,,,,,,,,,,119,1,2022-11-10_13h15.33.535,Online_SceneSrcMD_E,2020.2.10,MacIntel,60,,,,,,,,,,,,,,,,,,,,,,,,,,,,,,,,,,,n,1,0.831,,,,,,7,n,White,,,,,,,,,,,,,,,,,,,,,,,,,,,,,,,,,,,0,12,12,12,1,,,,,
,,,,,,,,,,,,,,119,1,2022-11-10_13h15.33.535,Online_SceneSrcMD_E,2020.2.10,MacIntel,60,,,,,,,,,,,,,,,,,,,,,,,,,,,,,,,,,,,n,1,0.594,,,,,,6,n,White,,,,,,,,,,,,,,,,,,,,,,,,,,,,,,,,,,,0,13,13,13,1,,,,,
,,,,,,,,,,,,,,119,1,2022-11-10_13h15.33.535,Online_SceneSrcMD_E,2020.2.10,MacIntel,60,,,,,,,,,,,,,,,,,,,,,,,,,,,,,,,,,,,a,1,0.647,,,,,,B,a,White,,,,,,,,,,,,,,,,,,,,,,,,,,,,,,,,,,,0,14,14,14,1,,,,,
,,,,,,,,,,,,,,119,1,2022-11-10_13h15.33.535,Online_SceneSrcMD_E,2020.2.10,MacIntel,60,,,,,,,,,,,,,,,,,,,,,,,,,,,,,,,,,,,a,1,1.026,,,,,,M,a,White,,,,,,,,,,,,,,,,,,,,,,,,,,,,,,,,,,,0,15,15,15,1,,,,,
,,,,,,,,,,,,,,119,1,2022-11-10_13h15.33.535,Online_SceneSrcMD_E,2020.2.10,MacIntel,60,,,,,,,,,,,,,,,,,,,,,,,,,,,,,,,,,,,n,1,0.527,,,,,,7,n,White,,,,,,,,,,,,,,,,,,,,,,,,,,,,,,,,,,,0,16,16,16,1,,,,,
,,,,,,,,,,,,,,119,1,2022-11-10_13h15.33.535,Online_SceneSrcMD_E,2020.2.10,MacIntel,60,,,,,,,,,,,,,,,,,,,,,,,,,,,,,,,,,,,n,1,0.672,,,,,,1,n,White,,,,,,,,,,,,,,,,,,,,,,,,,,,,,,,,,,,0,17,17,17,1,,,,,
,,,,,,,,,,,,,,119,1,2022-11-10_13h15.33.535,Online_SceneSrcMD_E,2020.2.10,MacIntel,60,,,,,,,,,,,,,,,,,,,,,,,,,,,,,,,,,,,n,1,0.622,,,,,,4,n,White,,,,,,,,,,,,,,,,,,,,,,,,,,,,,,,,,,,0,18,18,18,1,,,,,
,,,,,,,,,,,,,,119,1,2022-11-10_13h15.33.535,Online_SceneSrcMD_E,2020.2.10,MacIntel,60,,,,,,,,,,,,,,,,,,,,,,,,,,,,,,,,,,,a,1,0.99,,,,,,Z,a,White,,,,,,,,,,,,,,,,,,,,,,,,,,,,,,,,,,,0,19,19,19,1,,,,,
,,,,,,,,,,,,,,119,1,2022-11-10_13h15.33.535,Online_SceneSrcMD_E,2020.2.10,MacIntel,60,,,,,,,,,,,,,,,,,,,,,,,,,,,,,,,,,,,n,1,0.574,,,,,,5,n,White,,,,,,,,,,,,,,,,,,,,,,,,,,,,,,,,,,,0,20,20,20,1,,,,,
,,,,,,,,,,,,,,119,1,2022-11-10_13h15.33.535,Online_SceneSrcMD_E,2020.2.10,MacIntel,60,,,,,,,,,,,,,,,,,,,,,,,,,,,,,,,,,,,a,1,0.698,,,,,,S,a,White,,,,,,,,,,,,,,,,,,,,,,,,,,,,,,,,,,,0,21,21,21,1,,,,,
,,,,,,,,,,,,,,119,1,2022-11-10_13h15.33.535,Online_SceneSrcMD_E,2020.2.10,MacIntel,60,,,,,,,,,,,,,,,,,,,,,,,,,,,,,,,,,,,a,1,0.814,,,,,,V,a,White,,,,,,,,,,,,,,,,,,,,,,,,,,,,,,,,,,,0,22,22,22,1,,,,,
,,,,,,,,,,,,,,119,1,2022-11-10_13h15.33.535,Online_SceneSrcMD_E,2020.2.10,MacIntel,60,,,,,,,,,,,,,,,,,,,,,,,,,,,,,,,,,,,n,1,0.59,,,,,,4,n,White,,,,,,,,,,,,,,,,,,,,,,,,,,,,,,,,,,,0,23,23,23,1,,,,,
,,,,,,,,,,,,,,119,1,2022-11-10_13h15.33.535,Online_SceneSrcMD_E,2020.2.10,MacIntel,60,,,,,,,,,,,,,,,,,,,,,,,,,,,,,,,,,,,n,1,0.848,,,,,,6,n,White,,,,,,,,,,,,,,,,,,,,,,,,,,,,,,,,,,,0,24,24,24,1,,,,,
,,,,,,,,,,,,,,119,1,2022-11-10_13h15.33.535,Online_SceneSrcMD_E,2020.2.10,MacIntel,60,,,,,,,,,,,,,,,,,,,,,,,,,,,,,,,,,,,n,1,0.515,,,,,,7,n,White,,,,,,,,,,,,,,,,,,,,,,,,,,,,,,,,,,,0,25,25,25,1,,,,,
,,,,,,,,,,,,,,119,1,2022-11-10_13h15.33.535,Online_SceneSrcMD_E,2020.2.10,MacIntel,60,,,,,,,,,,,,,,,,,,,,,,,,,,,,,,,,,,,n,1,0.757,,,,,,5,n,White,,,,,,,,,,,,,,,,,,,,,,,,,,,,,,,,,,,0,26,26,26,1,,,,,
,,,,,,,,,,,,,,119,1,2022-11-10_13h15.33.535,Online_SceneSrcMD_E,2020.2.10,MacIntel,60,,,,,,,,,,,,,,,,,,,,,,,,,,,,,,,,,,,n,1,0.573,,,,,,0,n,White,,,,,,,,,,,,,,,,,,,,,,,,,,,,,,,,,,,0,27,27,27,1,,,,,
,,,,,,,,,,,,,,119,1,2022-11-10_13h15.33.535,Online_SceneSrcMD_E,2020.2.10,MacIntel,60,,,,,,,,,,,,,,,,,,,,,,,,,,,,,,,,,,,a,1,0.806,,,,,,G,a,White,,,,,,,,,,,,,,,,,,,,,,,,,,,,,,,,,,,0,28,28,28,1,,,,,
,,,,,,,,,,,,,,119,1,2022-11-10_13h15.33.535,Online_SceneSrcMD_E,2020.2.10,MacIntel,60,,,,,,,,,,,,,,,,,,,,,,,,,,,,,,,,,,,a,1,0.922,,,,,,V,a,White,,,,,,,,,,,,,,,,,,,,,,,,,,,,,,,,,,,0,29,29,29,1,,,,,
,,,,,,,,,,,,,,119,1,2022-11-10_13h15.33.535,Online_SceneSrcMD_E,2020.2.10,MacIntel,60,,,,,,,,,,,,,,,,,,,,,,,,,,,,,,,,,,,n,1,0.689,,,,,,5,n,White,,,,,,,,,,,,,,,,,,,,,,,,,,,,,,,,,,,0,30,30,30,1,,,,,
,,,,,,,,,,,,,,119,1,2022-11-10_13h15.33.535,Online_SceneSrcMD_E,2020.2.10,MacIntel,60,,,,,,,,,,,,,,,,,,,,,,,,,,,,,,,,,,,n,1,0.914,,,,,,5,n,White,,,,,,,,,,,,,,,,,,,,,,,,,,,,,,,,,,,0,31,31,31,1,,,,,
,,,,,,,,,,,,,,119,1,2022-11-10_13h15.33.535,Online_SceneSrcMD_E,2020.2.10,MacIntel,60,,,,,,,,,,,,,,,,,,,,,,,,,,,,,,,,,,,a,1,0.742,,,,,,Y,a,White,,,,,,,,,,,,,,,,,,,,,,,,,,,,,,,,,,,0,32,32,32,1,,,,,
,,,,,,,,,,,,,,119,1,2022-11-10_13h15.33.535,Online_SceneSrcMD_E,2020.2.10,MacIntel,60,,,,,,,,,,,,,,,,,,,,,,,,,,,,,,,,,,,a,1,0.793,,,,,,R,a,White,,,,,,,,,,,,,,,,,,,,,,,,,,,,,,,,,,,0,33,33,33,1,,,,,
,,,,,,,,,,,,,,119,1,2022-11-10_13h15.33.535,Online_SceneSrcMD_E,2020.2.10,MacIntel,60,,,,,,,,,,,,,,,,,,,,,,,,,,,,,,,,,,,,,,,,,,,,,,,,,,,OneBlock.csv,Block 2,,,,,,,,,,,,,,,,,,,,,,,,,,,,,,,,,0,1,1,1,1
,,,,,,,,,,,,,,119,1,2022-11-10_13h15.33.535,Online_SceneSrcMD_E,2020.2.10,MacIntel,60,,,,,,,,,,,,,,,,,,,,,,,,,,,,,,,,,,,n,1,0.622,,,,,,3,n,White,,,,,,,,,,,,,,,,,,,,,,,,,,,,,,,,,,,0,0,0,0,1,,,,,
,,,,,,,,,,,,,,119,1,2022-11-10_13h15.33.535,Online_SceneSrcMD_E,2020.2.10,MacIntel,60,,,,,,,,,,,,,,,,,,,,,,,,,,,,,,,,,,,n,1,0.521,,,,,,2,n,White,,,,,,,,,,,,,,,,,,,,,,,,,,,,,,,,,,,0,1,1,1,1,,,,,
,,,,,,,,,,,,,,119,1,2022-11-10_13h15.33.535,Online_SceneSrcMD_E,2020.2.10,MacIntel,60,,,,,,,,,,,,,,,,,,,,,,,,,,,,,,,,,,,a,1,0.877,,,,,,E,a,White,,,,,,,,,,,,,,,,,,,,,,,,,,,,,,,,,,,0,2,2,2,1,,,,,
,,,,,,,,,,,,,,119,1,2022-11-10_13h15.33.535,Online_SceneSrcMD_E,2020.2.10,MacIntel,60,,,,,,,,,,,,,,,,,,,,,,,,,,,,,,,,,,,n,1,0.571,,,,,,6,n,White,,,,,,,,,,,,,,,,,,,,,,,,,,,,,,,,,,,0,3,3,3,1,,,,,
,,,,,,,,,,,,,,119,1,2022-11-10_13h15.33.535,Online_SceneSrcMD_E,2020.2.10,MacIntel,60,,,,,,,,,,,,,,,,,,,,,,,,,,,,,,,,,,,a,1,1.108,,,,,,I,a,White,,,,,,,,,,,,,,,,,,,,,,,,,,,,,,,,,,,0,4,4,4,1,,,,,
,,,,,,,,,,,,,,119,1,2022-11-10_13h15.33.535,Online_SceneSrcMD_E,2020.2.10,MacIntel,60,,,,,,,,,,,,,,,,,,,,,,,,,,,,,,,,,,,n,1,0.778,,,,,,1,n,White,,,,,,,,,,,,,,,,,,,,,,,,,,,,,,,,,,,0,5,5,5,1,,,,,
,,,,,,,,,,,,,,119,1,2022-11-10_13h15.33.535,Online_SceneSrcMD_E,2020.2.10,MacIntel,60,,,,,,,,,,,,,,,,,,,,,,,,,,,,,,,,,,,n,1,0.722,,,,,,6,n,White,,,,,,,,,,,,,,,,,,,,,,,,,,,,,,,,,,,0,6,6,6,1,,,,,
,,,,,,,,,,,,,,119,1,2022-11-10_13h15.33.535,Online_SceneSrcMD_E,2020.2.10,MacIntel,60,,,,,,,,,,,,,,,,,,,,,,,,,,,,,,,,,,,a,1,0.643,,,,,,B,a,White,,,,,,,,,,,,,,,,,,,,,,,,,,,,,,,,,,,0,7,7,7,1,,,,,
,,,,,,,,,,,,,,119,1,2022-11-10_13h15.33.535,Online_SceneSrcMD_E,2020.2.10,MacIntel,60,,,,,,,,,,,,,,,,,,,,,,,,,,,,,,,,,,,n,1,0.973,,,,,,9,n,White,,,,,,,,,,,,,,,,,,,,,,,,,,,,,,,,,,,0,8,8,8,1,,,,,
,,,,,,,,,,,,,,119,1,2022-11-10_13h15.33.535,Online_SceneSrcMD_E,2020.2.10,MacIntel,60,,,,,,,,,,,,,,,,,,,,,,,,,,,,,,,,,,,n,1,0.699,,,,,,7,n,White,,,,,,,,,,,,,,,,,,,,,,,,,,,,,,,,,,,0,9,9,9,1,,,,,
,,,,,,,,,,,,,,119,1,2022-11-10_13h15.33.535,Online_SceneSrcMD_E,2020.2.10,MacIntel,60,,,,,,,,,,,,,,,,,,,,,,,,,,,,,,,,,,,n,1,0.832,,,,,,7,n,White,,,,,,,,,,,,,,,,,,,,,,,,,,,,,,,,,,,0,10,10,10,1,,,,,
,,,,,,,,,,,,,,119,1,2022-11-10_13h15.33.535,Online_SceneSrcMD_E,2020.2.10,MacIntel,60,,,,,,,,,,,,,,,,,,,,,,,,,,,,,,,,,,,a,1,0.708,,,,,,J,a,White,,,,,,,,,,,,,,,,,,,,,,,,,,,,,,,,,,,0,11,11,11,1,,,,,
,,,,,,,,,,,,,,119,1,2022-11-10_13h15.33.535,Online_SceneSrcMD_E,2020.2.10,MacIntel,60,,,,,,,,,,,,,,,,,,,,,,,,,,,,,,,,,,,a,1,0.639,,,,,,H,a,White,,,,,,,,,,,,,,,,,,,,,,,,,,,,,,,,,,,0,12,12,12,1,,,,,
,,,,,,,,,,,,,,119,1,2022-11-10_13h15.33.535,Online_SceneSrcMD_E,2020.2.10,MacIntel,60,,,,,,,,,,,,,,,,,,,,,,,,,,,,,,,,,,,n,1,0.805,,,,,,1,n,White,,,,,,,,,,,,,,,,,,,,,,,,,,,,,,,,,,,0,13,13,13,1,,,,,
,,,,,,,,,,,,,,119,1,2022-11-10_13h15.33.535,Online_SceneSrcMD_E,2020.2.10,MacIntel,60,,,,,,,,,,,,,,,,,,,,,,,,,,,,,,,,,,,a,1,0.71,,,,,,H,a,White,,,,,,,,,,,,,,,,,,,,,,,,,,,,,,,,,,,0,14,14,14,1,,,,,
,,,,,,,,,,,,,,119,1,2022-11-10_13h15.33.535,Online_SceneSrcMD_E,2020.2.10,MacIntel,60,,,,,,,,,,,,,,,,,,,,,,,,,,,,,,,,,,,n,1,1.346,,,,,,0,n,White,,,,,,,,,,,,,,,,,,,,,,,,,,,,,,,,,,,0,15,15,15,1,,,,,
,,,,,,,,,,,,,,119,1,2022-11-10_13h15.33.535,Online_SceneSrcMD_E,2020.2.10,MacIntel,60,,,,,,,,,,,,,,,,,,,,,,,,,,,,,,,,,,,n,1,0.616,,,,,,1,n,White,,,,,,,,,,,,,,,,,,,,,,,,,,,,,,,,,,,0,16,16,16,1,,,,,
,,,,,,,,,,,,,,119,1,2022-11-10_13h15.33.535,Online_SceneSrcMD_E,2020.2.10,MacIntel,60,,,,,,,,,,,,,,,,,,,,,,,,,,,,,,,,,,,a,1,0.7,,,,,,L,a,White,,,,,,,,,,,,,,,,,,,,,,,,,,,,,,,,,,,0,17,17,17,1,,,,,
,,,,,,,,,,,,,,119,1,2022-11-10_13h15.33.535,Online_SceneSrcMD_E,2020.2.10,MacIntel,60,,,,,,,,,,,,,,,,,,,,,,,,,,,,,,,,,,,n,1,1.031,,,,,,6,n,White,,,,,,,,,,,,,,,,,,,,,,,,,,,,,,,,,,,0,18,18,18,1,,,,,
,,,,,,,,,,,,,,119,1,2022-11-10_13h15.33.535,Online_SceneSrcMD_E,2020.2.10,MacIntel,60,,,,,,,,,,,,,,,,,,,,,,,,,,,,,,,,,,,n,1,0.572,,,,,,7,n,White,,,,,,,,,,,,,,,,,,,,,,,,,,,,,,,,,,,0,19,19,19,1,,,,,
,,,,,,,,,,,,,,119,1,2022-11-10_13h15.33.535,Online_SceneSrcMD_E,2020.2.10,MacIntel,60,,,,,,,,,,,,,,,,,,,,,,,,,,,,,,,,,,,n,1,0.838,,,,,,9,n,White,,,,,,,,,,,,,,,,,,,,,,,,,,,,,,,,,,,0,20,20,20,1,,,,,
,,,,,,,,,,,,,,119,1,2022-11-10_13h15.33.535,Online_SceneSrcMD_E,2020.2.10,MacIntel,60,,,,,,,,,,,,,,,,,,,,,,,,,,,,,,,,,,,a,1,0.657,,,,,,X,a,White,,,,,,,,,,,,,,,,,,,,,,,,,,,,,,,,,,,0,21,21,21,1,,,,,
,,,,,,,,,,,,,,119,1,2022-11-10_13h15.33.535,Online_SceneSrcMD_E,2020.2.10,MacIntel,60,,,,,,,,,,,,,,,,,,,,,,,,,,,,,,,,,,,a,1,0.742,,,,,,W,a,White,,,,,,,,,,,,,,,,,,,,,,,,,,,,,,,,,,,0,22,22,22,1,,,,,
,,,,,,,,,,,,,,119,1,2022-11-10_13h15.33.535,Online_SceneSrcMD_E,2020.2.10,MacIntel,60,,,,,,,,,,,,,,,,,,,,,,,,,,,,,,,,,,,n,1,0.676,,,,,,4,n,White,,,,,,,,,,,,,,,,,,,,,,,,,,,,,,,,,,,0,23,23,23,1,,,,,
,,,,,,,,,,,,,,119,1,2022-11-10_13h15.33.535,Online_SceneSrcMD_E,2020.2.10,MacIntel,60,,,,,,,,,,,,,,,,,,,,,,,,,,,,,,,,,,,n,1,0.79,,,,,,5,n,White,,,,,,,,,,,,,,,,,,,,,,,,,,,,,,,,,,,0,24,24,24,1,,,,,
,,,,,,,,,,,,,,119,1,2022-11-10_13h15.33.535,Online_SceneSrcMD_E,2020.2.10,MacIntel,60,,,,,,,,,,,,,,,,,,,,,,,,,,,,,,,,,,,a,1,0.659,,,,,,N,a,White,,,,,,,,,,,,,,,,,,,,,,,,,,,,,,,,,,,0,25,25,25,1,,,,,
,,,,,,,,,,,,,,119,1,2022-11-10_13h15.33.535,Online_SceneSrcMD_E,2020.2.10,MacIntel,60,,,,,,,,,,,,,,,,,,,,,,,,,,,,,,,,,,,n,1,0.616,,,,,,5,n,White,,,,,,,,,,,,,,,,,,,,,,,,,,,,,,,,,,,0,26,26,26,1,,,,,
,,,,,,,,,,,,,,119,1,2022-11-10_13h15.33.535,Online_SceneSrcMD_E,2020.2.10,MacIntel,60,,,,,,,,,,,,,,,,,,,,,,,,,,,,,,,,,,,a,1,0.789,,,,,,Y,a,White,,,,,,,,,,,,,,,,,,,,,,,,,,,,,,,,,,,0,27,27,27,1,,,,,
,,,,,,,,,,,,,,119,1,2022-11-10_13h15.33.535,Online_SceneSrcMD_E,2020.2.10,MacIntel,60,,,,,,,,,,,,,,,,,,,,,,,,,,,,,,,,,,,a,1,0.725,,,,,,M,a,White,,,,,,,,,,,,,,,,,,,,,,,,,,,,,,,,,,,0,28,28,28,1,,,,,
,,,,,,,,,,,,,,119,1,2022-11-10_13h15.33.535,Online_SceneSrcMD_E,2020.2.10,MacIntel,60,,,,,,,,,,,,,,,,,,,,,,,,,,,,,,,,,,,a,1,0.762,,,,,,U,a,White,,,,,,,,,,,,,,,,,,,,,,,,,,,,,,,,,,,0,29,29,29,1,,,,,
,,,,,,,,,,,,,,119,1,2022-11-10_13h15.33.535,Online_SceneSrcMD_E,2020.2.10,MacIntel,60,,,,,,,,,,,,,,,,,,,,,,,,,,,,,,,,,,,n,1,0.658,,,,,,6,n,White,,,,,,,,,,,,,,,,,,,,,,,,,,,,,,,,,,,0,30,30,30,1,,,,,
,,,,,,,,,,,,,,119,1,2022-11-10_13h15.33.535,Online_SceneSrcMD_E,2020.2.10,MacIntel,60,,,,,,,,,,,,,,,,,,,,,,,,,,,,,,,,,,,n,1,0.565,,,,,,6,n,White,,,,,,,,,,,,,,,,,,,,,,,,,,,,,,,,,,,0,31,31,31,1,,,,,
,,,,,,,,,,,,,,119,1,2022-11-10_13h15.33.535,Online_SceneSrcMD_E,2020.2.10,MacIntel,60,,,,,,,,,,,,,,,,,,,,,,,,,,,,,,,,,,,a,1,0.631,,,,,,Y,a,White,,,,,,,,,,,,,,,,,,,,,,,,,,,,,,,,,,,0,32,32,32,1,,,,,
,,,,,,,,,,,,,,119,1,2022-11-10_13h15.33.535,Online_SceneSrcMD_E,2020.2.10,MacIntel,60,,,,,,,,,,,,,,,,,,,,,,,,,,,,,,,,,,,a,1,1.26,,,,,,I,a,White,,,,,,,,,,,,,,,,,,,,,,,,,,,,,,,,,,,0,33,33,33,1,,,,,
,,,,,,,,,,,,,,119,1,2022-11-10_13h15.33.535,Online_SceneSrcMD_E,2020.2.10,MacIntel,60,,,,,,,,,,,,,,,,,,,,,,,,,,,,,,,,,,,,,,,,,,,,,,,,,,,TwoBlock.csv,Block 3,,,,,,,,,,,,,,,,,,,,,,,,,,,,,,,,,0,2,2,2,1