Instructions_Loop.thisRepN,Instructions_Loop.thisTrialN,Instructions_Loop.thisN,Instructions_Loop.thisIndex,Instructions_Loop.ran,Top,Top_Bottom,TBMT_int,Middle_Top,Middle,Middle_Bottom,Bottom_Top,Bottom,Photo,participant,session,date,expName,psychopyVersion,OS,frameRate,Redo_Instructions_Resp.keys,Redo_Instructions_Resp.rt,Nback_Transition_Resp_Enc.keys,Nback_Transition_Resp_Enc.rt,Encoding_Resp.keys,Encoding_Resp.corr,Encoding_Resp.rt,Practice_Blocks.thisRepN,Practice_Blocks.thisTrialN,Practice_Blocks.thisN,Practice_Blocks.thisIndex,Practice_Blocks.ran,Scene,encAns,Practice_Enc_Break_Resp.keys,Practice_Enc_Break_Resp.rt,Practice_Enc_Break_Loop.thisRepN,Practice_Enc_Break_Loop.thisTrialN,Practice_Enc_Break_Loop.thisN,Practice_Enc_Break_Loop.thisIndex,Practice_Enc_Break_Loop.ran,Practice_Loop_Order.thisRepN,Practice_Loop_Order.thisTrialN,Practice_Loop_Order.thisN,Practice_Loop_Order.thisIndex,Practice_Loop_Order.ran,practiceFile,Nback_Transition_Resp.keys,Nback_Transition_Resp.rt,Nback_Resp.keys,Nback_Resp.corr,Nback_Resp.rt,Practice_DBack_Loop.thisRepN,Practice_DBack_Loop.thisTrialN,Practice_DBack_Loop.thisN,Practice_DBack_Loop.thisIndex,Practice_DBack_Loop.ran,thisAlphaNum,ANAns,Color,Practice_DBlock_Loop.thisRepN,Practice_DBlock_Loop.thisTrialN,Practice_DBlock_Loop.thisN,Practice_DBlock_Loop.thisIndex,Practice_DBlock_Loop.ran,ANOrder,BlockTitle,Blocks.thisRepN,Blocks.thisTrialN,Blocks.thisN,Blocks.thisIndex,Blocks.ran,AttnResp_keys.keys,AttnResp_keys.rt,Enc_Break_Resp.keys,Enc_Break_Resp.rt,Enc_Break_Loop.thisRepN,Enc_Break_Loop.thisTrialN,Enc_Break_Loop.thisN,Enc_Break_Loop.thisIndex,Enc_Break_Loop.ran,AttnCheck,Group_Order.thisRepN,Group_Order.thisTrialN,Group_Order.thisN,Group_Order.thisIndex,Group_Order.ran,blockFile,attnFile,Enc_Break_Loop2.thisRepN,Enc_Break_Loop2.thisTrialN,Enc_Break_Loop2.thisN,Enc_Break_Loop2.thisIndex,Enc_Break_Loop2.ran,DBack_Loop.thisRepN,DBack_Loop.thisTrialN,DBack_Loop.thisN,DBack_Loop.thisIndex,DBack_Loop.ran,DBlock_Loop.thisRepN,DBlock_Loop.thisTrialN,DBlock_Loop.thisN,DBlock_Loop.thisIndex,DBlock_Loop.ran
0,0,0,0,1,NaN,NaN,NaN,NaN,welcome,NaN,NaN,press SPACE to continue,Empty.png,182,1,2023-05-15_08h33.50.564,Online_SceneSrcMD_E,2020.2.10,MacIntel,60,,,,,,,,,,,,,,,,,,,,,,,,,,,,,,,,,,,,,,,,,,,,,,,,,,,,,,,,,,,,,,,,,,,,,,,,,,,,,,,,,,,,
0,1,1,1,1,NaN,NaN,NaN,in this experiment you will categorize images and symbols.,NaN,NaN,NaN,press SPACE to continue,Empty.png,182,1,2023-05-15_08h33.50.564,Online_SceneSrcMD_E,2020.2.10,MacIntel,60,,,,,,,,,,,,,,,,,,,,,,,,,,,,,,,,,,,,,,,,,,,,,,,,,,,,,,,,,,,,,,,,,,,,,,,,,,,,,,,,,,,,
0,2,2,2,1,"during the image categorization task, scenes will be presented on the screen one at a time.",NaN,NaN,each scene will be surrounded by a colored frame.,NaN,your task is to view each image and report if the frame color appears in the scene.,NaN,press SPACE to continue,Empty.png,182,1,2023-05-15_08h33.50.564,Online_SceneSrcMD_E,2020.2.10,MacIntel,60,,,,,,,,,,,,,,,,,,,,,,,,,,,,,,,,,,,,,,,,,,,,,,,,,,,,,,,,,,,,,,,,,,,,,,,,,,,,,,,,,,,,
0,3,3,3,1,"if the frame color is present in the scene, press 'P'.","otherwise, press 'Q'.",NaN,each image will be presented for four seconds.,NaN,please respond during this time.,NaN,press SPACE to continue,Empty.png,182,1,2023-05-15_08h33.50.564,Online_SceneSrcMD_E,2020.2.10,MacIntel,60,,,,,,,,,,,,,,,,,,,,,,,,,,,,,,,,,,,,,,,,,,,,,,,,,,,,,,,,,,,,,,,,,,,,,,,,,,,,,,,,,,,,
0,4,4,4,1,NaN,NaN,NaN,three blocks of images will be presented.,NaN,"after each block, you will have the option to take a short break.",NaN,press SPACE to continue,Empty.png,182,1,2023-05-15_08h33.50.564,Online_SceneSrcMD_E,2020.2.10,MacIntel,60,,,,,,,,,,,,,,,,,,,,,,,,,,,,,,,,,,,,,,,,,,,,,,,,,,,,,,,,,,,,,,,,,,,,,,,,,,,,,,,,,,,,
0,5,5,5,1,some of the images will portray scenes with emotional content.,NaN,NaN,if you become uncomfortable please remember that you can leave the experiment at any point without penalty.,NaN,NaN,NaN,press SPACE to continue,Empty.png,182,1,2023-05-15_08h33.50.564,Online_SceneSrcMD_E,2020.2.10,MacIntel,60,,,,,,,,,,,,,,,,,,,,,,,,,,,,,,,,,,,,,,,,,,,,,,,,,,,,,,,,,,,,,,,,,,,,,,,,,,,,,,,,,,,,
0,6,6,6,1,example of an image depicting a scene with emotional content:,NaN,NaN,NaN,NaN,NaN,'P' would be the correct response as blue appears in the scene.,press SPACE to continue,TS08.png,182,1,2023-05-15_08h33.50.564,Online_SceneSrcMD_E,2020.2.10,MacIntel,60,,,,,,,,,,,,,,,,,,,,,,,,,,,,,,,,,,,,,,,,,,,,,,,,,,,,,,,,,,,,,,,,,,,,,,,,,,,,,,,,,,,,
0,7,7,7,1,example of an image depicting a scene with neutral content:,NaN,NaN,NaN,NaN,NaN,'Q' would be the correct response as red does not appear in the scene.,press SPACE to continue,TS06.png,182,1,2023-05-15_08h33.50.564,Online_SceneSrcMD_E,2020.2.10,MacIntel,60,,,,,,,,,,,,,,,,,,,,,,,,,,,,,,,,,,,,,,,,,,,,,,,,,,,,,,,,,,,,,,,,,,,,,,,,,,,,,,,,,,,,
0,8,8,8,1,NaN,NaN,NaN,"after seeing both blocks of images, you will complete a symbol categorization task.",NaN,NaN,NaN,press SPACE to continue,Empty.png,182,1,2023-05-15_08h33.50.564,Online_SceneSrcMD_E,2020.2.10,MacIntel,60,,,,,,,,,,,,,,,,,,,,,,,,,,,,,,,,,,,,,,,,,,,,,,,,,,,,,,,,,,,,,,,,,,,,,,,,,,,,,,,,,,,,
0,9,9,9,1,"during the symbol categorization task, symbols will be presented on the screen one at a time.",NaN,NaN,NaN,NaN,your task is to view each symbol and report its identity.,NaN,press SPACE to continue,Empty.png,182,1,2023-05-15_08h33.50.564,Online_SceneSrcMD_E,2020.2.10,MacIntel,60,,,,,,,,,,,,,,,,,,,,,,,,,,,,,,,,,,,,,,,,,,,,,,,,,,,,,,,,,,,,,,,,,,,,,,,,,,,,,,,,,,,,
0,10,10,10,1,"if you see a number, press 'N'","if you see an alphabetical letter, press 'A'",NaN,each symbol will be presented for three seconds.,NaN,please respond during this time.,NaN,press SPACE to continue,Empty.png,182,1,2023-05-15_08h33.50.564,Online_SceneSrcMD_E,2020.2.10,MacIntel,60,,,,,,,,,,,,,,,,,,,,,,,,,,,,,,,,,,,,,,,,,,,,,,,,,,,,,,,,,,,,,,,,,,,,,,,,,,,,,,,,,,,,
0,11,11,11,1,NaN,NaN,NaN,three blocks will be presented -- there will be no breaks in between the three blocks.,NaN,NaN,NaN,press SPACE to continue,Empty.png,182,1,2023-05-15_08h33.50.564,Online_SceneSrcMD_E,2020.2.10,MacIntel,60,,,,,,,,,,,,,,,,,,,,,,,,,,,,,,,,,,,,,,,,,,,,,,,,,,,,,,,,,,,,,,,,,,,,,,,,,,,,,,,,,,,,
0,12,12,12,1,example of a number:,NaN,NaN,NaN,3,NaN,'N' would be the correct response as the symbol is a number.,press SPACE to continue,Empty.png,182,1,2023-05-15_08h33.50.564,Online_SceneSrcMD_E,2020.2.10,MacIntel,60,,,,,,,,,,,,,,,,,,,,,,,,,,,,,,,,,,,,,,,,,,,,,,,,,,,,,,,,,,,,,,,,,,,,,,,,,,,,,,,,,,,,
0,13,13,13,1,example of a alphabetical letter:,NaN,NaN,NaN,C,NaN,'A' would be the correct response as the symbol is a letter.,press SPACE to continue,Empty.png,182,1,2023-05-15_08h33.50.564,Online_SceneSrcMD_E,2020.2.10,MacIntel,60,,,,,,,,,,,,,,,,,,,,,,,,,,,,,,,,,,,,,,,,,,,,,,,,,,,,,,,,,,,,,,,,,,,,,,,,,,,,,,,,,,,,
0,14,14,14,1,NaN,NaN,NaN,this is the end of the instructions,NaN,NaN,NaN,press SPACE to continue,Empty.png,182,1,2023-05-15_08h33.50.564,Online_SceneSrcMD_E,2020.2.10,MacIntel,60,,,,,,,,,,,,,,,,,,,,,,,,,,,,,,,,,,,,,,,,,,,,,,,,,,,,,,,,,,,,,,,,,,,,,,,,,,,,,,,,,,,,
,,,,,,,,,,,,,,182,1,2023-05-15_08h33.50.564,Online_SceneSrcMD_E,2020.2.10,MacIntel,60,p,2.855,space,4.673,p,1,3.354,0,0,0,0,1,TS01.png,p,,,,,,,,,,,,,,,,,,,,,,,,,,,,,,,,,,,,,,,,,,,,,,,,,,,,,,,,,,,,,,,,,,,,,,
,,,,,,,,,,,,,,182,1,2023-05-15_08h33.50.564,Online_SceneSrcMD_E,2020.2.10,MacIntel,60,,,,,q,0,1.76,0,1,1,1,1,TS02.png,p,,,,,,,,,,,,,,,,,,,,,,,,,,,,,,,,,,,,,,,,,,,,,,,,,,,,,,,,,,,,,,,,,,,,,,
,,,,,,,,,,,,,,182,1,2023-05-15_08h33.50.564,Online_SceneSrcMD_E,2020.2.10,MacIntel,60,,,,,p,1,1.826,0,2,2,2,1,TS05.png,p,,,,,,,,,,,,,,,,,,,,,,,,,,,,,,,,,,,,,,,,,,,,,,,,,,,,,,,,,,,,,,,,,,,,,,
,,,,,,,,,,,,,,182,1,2023-05-15_08h33.50.564,Online_SceneSrcMD_E,2020.2.10,MacIntel,60,,,,,q,1,1.172,0,3,3,3,1,TS06.png,q,,,,,,,,,,,,,,,,,,,,,,,,,,,,,,,,,,,,,,,,,,,,,,,,,,,,,,,,,,,,,,,,,,,,,,
,,,,,,,,,,,,,,182,1,2023-05-15_08h33.50.564,Online_SceneSrcMD_E,2020.2.10,MacIntel,60,,,,,,,,,,,,,,,space,1.488,0,0,0,0,1,,,,,,,,,,,,,,,,,,,,,,,,,,,,,,,,,,,,,,,,,,,,,,,,,,,,,,,,,,,,,,,
,,,,,,,,,,,,,,182,1,2023-05-15_08h33.50.564,Online_SceneSrcMD_E,2020.2.10,MacIntel,60,,,,,,,,,,,,,,,,,,,,,,0,0,0,0,1,PracticeONE.csv,,,,,,,,,,,,,,,,,,,,,,,,,,,,,,,,,,,,,,,,,,,,,,,,,,,,,,,,,
,,,,,,,,,,,,,,182,1,2023-05-15_08h33.50.564,Online_SceneSrcMD_E,2020.2.10,MacIntel,60,,,,,q,0,1.93,0,0,0,0,1,TS03.png,p,,,,,,,,,,,,,,,,,,,,,,,,,,,,,,,,,,,,,,,,,,,,,,,,,,,,,,,,,,,,,,,,,,,,,,
,,,,,,,,,,,,,,182,1,2023-05-15_08h33.50.564,Online_SceneSrcMD_E,2020.2.10,MacIntel,60,,,,,q,0,2.213,0,1,1,1,1,TS04.png,p,,,,,,,,,,,,,,,,,,,,,,,,,,,,,,,,,,,,,,,,,,,,,,,,,,,,,,,,,,,,,,,,,,,,,,
,,,,,,,,,,,,,,182,1,2023-05-15_08h33.50.564,Online_SceneSrcMD_E,2020.2.10,MacIntel,60,,,,,q,0,3.571,0,2,2,2,1,TS07.png,p,,,,,,,,,,,,,,,,,,,,,,,,,,,,,,,,,,,,,,,,,,,,,,,,,,,,,,,,,,,,,,,,,,,,,,
,,,,,,,,,,,,,,182,1,2023-05-15_08h33.50.564,Online_SceneSrcMD_E,2020.2.10,MacIntel,60,,,,,p,1,1.343,0,3,3,3,1,TS08.png,p,,,,,,,,,,,,,,,,,,,,,,,,,,,,,,,,,,,,,,,,,,,,,,,,,,,,,,,,,,,,,,,,,,,,,,
,,,,,,,,,,,,,,182,1,2023-05-15_08h33.50.564,Online_SceneSrcMD_E,2020.2.10,MacIntel,60,,,,,,,,,,,,,,,,,,,,,,0,1,1,1,1,PracticeTWO.csv,,,,,,,,,,,,,,,,,,,,,,,,,,,,,,,,,,,,,,,,,,,,,,,,,,,,,,,,,
,,,,,,,,,,,,,,182,1,2023-05-15_08h33.50.564,Online_SceneSrcMD_E,2020.2.10,MacIntel,60,,,,,,,,,,,,,,,,,,,,,,,,,,,,space,16.674,n,1,1.311,0,0,0,0,1,2,n,White,,,,,,,,,,,,,,,,,,,,,,,,,,,,,,,,,,,,,,,,,,,,
,,,,,,,,,,,,,,182,1,2023-05-15_08h33.50.564,Online_SceneSrcMD_E,2020.2.10,MacIntel,60,,,,,,,,,,,,,,,,,,,,,,,,,,,,,,n,1,0.69,0,1,1,1,1,8,n,White,,,,,,,,,,,,,,,,,,,,,,,,,,,,,,,,,,,,,,,,,,,,
,,,,,,,,,,,,,,182,1,2023-05-15_08h33.50.564,Online_SceneSrcMD_E,2020.2.10,MacIntel,60,,,,,,,,,,,,,,,,,,,,,,,,,,,,,,a,1,0.822,0,2,2,2,1,S,a,White,,,,,,,,,,,,,,,,,,,,,,,,,,,,,,,,,,,,,,,,,,,,
,,,,,,,,,,,,,,182,1,2023-05-15_08h33.50.564,Online_SceneSrcMD_E,2020.2.10,MacIntel,60,,,,,,,,,,,,,,,,,,,,,,,,,,,,,,a,1,1.122,0,3,3,3,1,J,a,White,,,,,,,,,,,,,,,,,,,,,,,,,,,,,,,,,,,,,,,,,,,,
,,,,,,,,,,,,,,182,1,2023-05-15_08h33.50.564,Online_SceneSrcMD_E,2020.2.10,MacIntel,60,,,,,,,,,,,,,,,,,,,,,,,,,,,,,,n,1,0.843,0,4,4,4,1,6,n,White,,,,,,,,,,,,,,,,,,,,,,,,,,,,,,,,,,,,,,,,,,,,
,,,,,,,,,,,,,,182,1,2023-05-15_08h33.50.564,Online_SceneSrcMD_E,2020.2.10,MacIntel,60,,,,,,,,,,,,,,,,,,,,,,,,,,,,,,,,,,,,,,,,,0,0,0,0,1,Practice_ZeroBlock.csv,Practice Block 1,,,,,,,,,,,,,,,,,,,,,,,,,,,,,,,,,,,,,
,,,,,,,,,,,,,,182,1,2023-05-15_08h33.50.564,Online_SceneSrcMD_E,2020.2.10,MacIntel,60,,,,,,,,,,,,,,,,,,,,,,,,,,,,,,a,1,1.372,0,0,0,0,1,F,a,White,,,,,,,,,,,,,,,,,,,,,,,,,,,,,,,,,,,,,,,,,,,,
,,,,,,,,,,,,,,182,1,2023-05-15_08h33.50.564,Online_SceneSrcMD_E,2020.2.10,MacIntel,60,,,,,,,,,,,,,,,,,,,,,,,,,,,,,,a,1,0.907,0,1,1,1,1,H,a,White,,,,,,,,,,,,,,,,,,,,,,,,,,,,,,,,,,,,,,,,,,,,
,,,,,,,,,,,,,,182,1,2023-05-15_08h33.50.564,Online_SceneSrcMD_E,2020.2.10,MacIntel,60,,,,,,,,,,,,,,,,,,,,,,,,,,,,,,a,1,0.911,0,2,2,2,1,X,a,White,,,,,,,,,,,,,,,,,,,,,,,,,,,,,,,,,,,,,,,,,,,,
,,,,,,,,,,,,,,182,1,2023-05-15_08h33.50.564,Online_SceneSrcMD_E,2020.2.10,MacIntel,60,,,,,,,,,,,,,,,,,,,,,,,,,,,,,,n,1,0.709,0,3,3,3,1,5,n,White,,,,,,,,,,,,,,,,,,,,,,,,,,,,,,,,,,,,,,,,,,,,
,,,,,,,,,,,,,,182,1,2023-05-15_08h33.50.564,Online_SceneSrcMD_E,2020.2.10,MacIntel,60,,,,,,,,,,,,,,,,,,,,,,,,,,,,,,n,1,1.194,0,4,4,4,1,1,n,White,,,,,,,,,,,,,,,,,,,,,,,,,,,,,,,,,,,,,,,,,,,,
,,,,,,,,,,,,,,182,1,2023-05-15_08h33.50.564,Online_SceneSrcMD_E,2020.2.10,MacIntel,60,,,,,,,,,,,,,,,,,,,,,,,,,,,,,,,,,,,,,,,,,0,1,1,1,1,Practice_OneBlock.csv,Practice Block 2,,,,,,,,,,,,,,,,,,,,,,,,,,,,,,,,,,,,,
,,,,,,,,,,,,,,182,1,2023-05-15_08h33.50.564,Online_SceneSrcMD_E,2020.2.10,MacIntel,60,,,,,,,,,,,,,,,,,,,,,,,,,,,,,,n,1,1.007,0,0,0,0,1,2,n,White,,,,,,,,,,,,,,,,,,,,,,,,,,,,,,,,,,,,,,,,,,,,
,,,,,,,,,,,,,,182,1,2023-05-15_08h33.50.564,Online_SceneSrcMD_E,2020.2.10,MacIntel,60,,,,,,,,,,,,,,,,,,,,,,,,,,,,,,a,1,0.822,0,1,1,1,1,V,a,White,,,,,,,,,,,,,,,,,,,,,,,,,,,,,,,,,,,,,,,,,,,,
,,,,,,,,,,,,,,182,1,2023-05-15_08h33.50.564,Online_SceneSrcMD_E,2020.2.10,MacIntel,60,,,,,,,,,,,,,,,,,,,,,,,,,,,,,,n,1,0.725,0,2,2,2,1,5,n,White,,,,,,,,,,,,,,,,,,,,,,,,,,,,,,,,,,,,,,,,,,,,
,,,,,,,,,,,,,,182,1,2023-05-15_08h33.50.564,Online_SceneSrcMD_E,2020.2.10,MacIntel,60,,,,,,,,,,,,,,,,,,,,,,,,,,,,,,n,1,0.744,0,3,3,3,1,2,n,White,,,,,,,,,,,,,,,,,,,,,,,,,,,,,,,,,,,,,,,,,,,,
,,,,,,,,,,,,,,182,1,2023-05-15_08h33.50.564,Online_SceneSrcMD_E,2020.2.10,MacIntel,60,,,,,,,,,,,,,,,,,,,,,,,,,,,,,,a,1,0.797,0,4,4,4,1,F,a,White,,,,,,,,,,,,,,,,,,,,,,,,,,,,,,,,,,,,,,,,,,,,
,,,,,,,,,,,,,,182,1,2023-05-15_08h33.50.564,Online_SceneSrcMD_E,2020.2.10,MacIntel,60,,,,,,,,,,,,,,,,,,,,,,,,,,,,,,,,,,,,,,,,,0,2,2,2,1,Practice_TwoBlock.csv,Practice Block 3,,,,,,,,,,,,,,,,,,,,,,,,,,,,,,,,,,,,,
,,,,,,,,,,,,,,182,1,2023-05-15_08h33.50.564,Online_SceneSrcMD_E,2020.2.10,MacIntel,60,,,space,12.434,p,1,1.609,,,,,,N2-9913comp.png,p,,,,,,,,,,,,,,,,,,,,,,,,,,,,,,,,,,0,0,0,0,1,,,,,,,,,,,,,,,,,,,,,,,,,,,,,,,,
,,,,,,,,,,,,,,182,1,2023-05-15_08h33.50.564,Online_SceneSrcMD_E,2020.2.10,MacIntel,60,,,,,q,1,1.869,,,,,,E2-9921comp.png,q,,,,,,,,,,,,,,,,,,,,,,,,,,,,,,,,,,0,1,1,1,1,,,,,,,,,,,,,,,,,,,,,,,,,,,,,,,,
,,,,,,,,,,,,,,182,1,2023-05-15_08h33.50.564,Online_SceneSrcMD_E,2020.2.10,MacIntel,60,,,,,p,1,1.86,,,,,,N2-8160comp.png,p,,,,,,,,,,,,,,,,,,,,,,,,,,,,,,,,,,0,2,2,2,1,,,,,,,,,,,,,,,,,,,,,,,,,,,,,,,,
,,,,,,,,,,,,,,182,1,2023-05-15_08h33.50.564,Online_SceneSrcMD_E,2020.2.10,MacIntel,60,,,,,q,0,2.935,,,,,,E2-6415comp.png,p,,,,,,,,,,,,,,,,,,,,,,,,,,,,,,,,,,0,3,3,3,1,,,,,,,,,,,,,,,,,,,,,,,,,,,,,,,,
,,,,,,,,,,,,,,182,1,2023-05-15_08h33.50.564,Online_SceneSrcMD_E,2020.2.10,MacIntel,60,,,,,p,1,1.89,,,,,,N2-5395comp.png,p,,,,,,,,,,,,,,,,,,,,,,,,,,,,,,,,,,0,4,4,4,1,,,,,,,,,,,,,,,,,,,,,,,,,,,,,,,,
,,,,,,,,,,,,,,182,1,2023-05-15_08h33.50.564,Online_SceneSrcMD_E,2020.2.10,MacIntel,60,,,,,p,1,1.852,,,,,,E2-3350comp.png,p,,,,,,,,,,,,,,,,,,,,,,,,,,,,,,,,,,0,5,5,5,1,,,,,,,,,,,,,,,,,,,,,,,,,,,,,,,,
,,,,,,,,,,,,,,182,1,2023-05-15_08h33.50.564,Online_SceneSrcMD_E,2020.2.10,MacIntel,60,,,,,q,1,2.135,,,,,,N2-1600comp.png,q,,,,,,,,,,,,,,,,,,,,,,,,,,,,,,,,,,0,6,6,6,1,,,,,,,,,,,,,,,,,,,,,,,,,,,,,,,,
,,,,,,,,,,,,,,182,1,2023-05-15_08h33.50.564,Online_SceneSrcMD_E,2020.2.10,MacIntel,60,,,,,p,0,2.23,,,,,,N2-7550comp.png,q,,,,,,,,,,,,,,,,,,,,,,,,,,,,,,,,,,0,7,7,7,1,,,,,,,,,,,,,,,,,,,,,,,,,,,,,,,,
,,,,,,,,,,,,,,182,1,2023-05-15_08h33.50.564,Online_SceneSrcMD_E,2020.2.10,MacIntel,60,,,,,q,1,2.26,,,,,,E2-6243comp.png,q,,,,,,,,,,,,,,,,,,,,,,,,,,,,,,,,,,0,8,8,8,1,,,,,,,,,,,,,,,,,,,,,,,,,,,,,,,,
,,,,,,,,,,,,,,182,1,2023-05-15_08h33.50.564,Online_SceneSrcMD_E,2020.2.10,MacIntel,60,,,,,p,1,1.752,,,,,,N2-2840comp.png,p,,,,,,,,,,,,,,,,,,,,,,,,,,,,,,,,,,0,9,9,9,1,,,,,,,,,,,,,,,,,,,,,,,,,,,,,,,,
,,,,,,,,,,,,,,182,1,2023-05-15_08h33.50.564,Online_SceneSrcMD_E,2020.2.10,MacIntel,60,,,,,p,1,1.26,,,,,,E2-2716comp.png,p,,,,,,,,,,,,,,,,,,,,,,,,,,,,,,,,,,0,10,10,10,1,,,,,,,,,,,,,,,,,,,,,,,,,,,,,,,,
,,,,,,,,,,,,,,182,1,2023-05-15_08h33.50.564,Online_SceneSrcMD_E,2020.2.10,MacIntel,60,,,,,q,1,2.956,,,,,,N2-6570_2comp.png,q,,,,,,,,,,,,,,,,,,,,,,,,,,,,,,,,,,0,11,11,11,1,,,,,,,,,,,,,,,,,,,,,,,,,,,,,,,,
,,,,,,,,,,,,,,182,1,2023-05-15_08h33.50.564,Online_SceneSrcMD_E,2020.2.10,MacIntel,60,,,,,q,1,3.275,,,,,,E2-2900_1comp.png,q,,,,,,,,,,,,,,,,,,,,,,,,,,,,,,,,,,0,12,12,12,1,,,,,,,,,,,,,,,,,,,,,,,,,,,,,,,,
,,,,,,,,,,,,,,182,1,2023-05-15_08h33.50.564,Online_SceneSrcMD_E,2020.2.10,MacIntel,60,,,,,q,1,2.54,,,,,,N2-2594comp.png,q,,,,,,,,,,,,,,,,,,,,,,,,,,,,,,,,,,0,13,13,13,1,,,,,,,,,,,,,,,,,,,,,,,,,,,,,,,,
,,,,,,,,,,,,,,182,1,2023-05-15_08h33.50.564,Online_SceneSrcMD_E,2020.2.10,MacIntel,60,,,,,p,1,2.156,,,,,,E2-9420comp.png,p,,,,,,,,,,,,,,,,,,,,,,,,,,,,,,,,,,0,14,14,14,1,,,,,,,,,,,,,,,,,,,,,,,,,,,,,,,,
,,,,,,,,,,,,,,182,1,2023-05-15_08h33.50.564,Online_SceneSrcMD_E,2020.2.10,MacIntel,60,,,,,p,1,3.168,,,,,,N2-5779comp.png,p,,,,,,,,,,,,,,,,,,,,,,,,,,,,,,,,,,0,15,15,15,1,,,,,,,,,,,,,,,,,,,,,,,,,,,,,,,,
,,,,,,,,,,,,,,182,1,2023-05-15_08h33.50.564,Online_SceneSrcMD_E,2020.2.10,MacIntel,60,,,,,p,1,2.102,,,,,,E2-1932comp.png,p,,,,,,,,,,,,,,,,,,,,,,,,,,,,,,,,,,0,16,16,16,1,,,,,,,,,,,,,,,,,,,,,,,,,,,,,,,,
,,,,,,,,,,,,,,182,1,2023-05-15_08h33.50.564,Online_SceneSrcMD_E,2020.2.10,MacIntel,60,,,,,p,0,2.406,,,,,,E2-9582comp.png,q,,,,,,,,,,,,,,,,,,,,,,,,,,,,,,,,,,0,17,17,17,1,,,,,,,,,,,,,,,,,,,,,,,,,,,,,,,,
,,,,,,,,,,,,,,182,1,2023-05-15_08h33.50.564,Online_SceneSrcMD_E,2020.2.10,MacIntel,60,,,,,q,1,2.124,,,,,,N2-2620comp.png,q,,,,,,,,,,,,,,,,,,,,,,,,,,,,,,,,,,0,18,18,18,1,,,,,,,,,,,,,,,,,,,,,,,,,,,,,,,,
,,,,,,,,,,,,,,182,1,2023-05-15_08h33.50.564,Online_SceneSrcMD_E,2020.2.10,MacIntel,60,,,,,q,1,2.719,,,,,,E2-7380comp.png,q,,,,,,,,,,,,,,,,,,,,,,,,,,,,,,,,,,0,19,19,19,1,,,,,,,,,,,,,,,,,,,,,,,,,,,,,,,,
,,,,,,,,,,,,,,182,1,2023-05-15_08h33.50.564,Online_SceneSrcMD_E,2020.2.10,MacIntel,60,,,,,,,,,,,,,,,,,,,,,,,,,,,,,,,,,,,,,,,,,,,,,,,,,,,,,"[""1"",""3"",""4"",""5""]","[6.156999999999925,7.560999999999922,8.427999999999884,8.820999999999913]",space,4.318,0,0,0,0,1,Attn_Colored.png,,,,,,,,,,,,,,,,,,,,,,
,,,,,,,,,,,,,,182,1,2023-05-15_08h33.50.564,Online_SceneSrcMD_E,2020.2.10,MacIntel,60,,,,,,,,,,,,,,,,,,,,,,,,,,,,,,,,,,,,,,,,,,,,,,,,,,,,,,,,,,,,,,,0,0,0,0,1,BlockFour.csv,ColorCheck.csv,,,,,,,,,,,,,,,
,,,,,,,,,,,,,,182,1,2023-05-15_08h33.50.564,Online_SceneSrcMD_E,2020.2.10,MacIntel,60,,,,,p,1,1.701,,,,,,N2-1661comp.png,p,,,,,,,,,,,,,,,,,,,,,,,,,,,,,,,,,,0,0,0,0,1,,,,,,,,,,,,,,,,,,,,,,,,,,,,,,,,
,,,,,,,,,,,,,,182,1,2023-05-15_08h33.50.564,Online_SceneSrcMD_E,2020.2.10,MacIntel,60,,,,,q,0,2.689,,,,,,E2-9340comp.png,p,,,,,,,,,,,,,,,,,,,,,,,,,,,,,,,,,,0,1,1,1,1,,,,,,,,,,,,,,,,,,,,,,,,,,,,,,,,
,,,,,,,,,,,,,,182,1,2023-05-15_08h33.50.564,Online_SceneSrcMD_E,2020.2.10,MacIntel,60,,,,,p,1,2.32,,,,,,N2-2512comp.png,p,,,,,,,,,,,,,,,,,,,,,,,,,,,,,,,,,,0,2,2,2,1,,,,,,,,,,,,,,,,,,,,,,,,,,,,,,,,
,,,,,,,,,,,,,,182,1,2023-05-15_08h33.50.564,Online_SceneSrcMD_E,2020.2.10,MacIntel,60,,,,,q,1,2.225,,,,,,E2-3261comp.png,q,,,,,,,,,,,,,,,,,,,,,,,,,,,,,,,,,,0,3,3,3,1,,,,,,,,,,,,,,,,,,,,,,,,,,,,,,,,
,,,,,,,,,,,,,,182,1,2023-05-15_08h33.50.564,Online_SceneSrcMD_E,2020.2.10,MacIntel,60,,,,,q,1,2.242,,,,,,N2-2270comp.png,q,,,,,,,,,,,,,,,,,,,,,,,,,,,,,,,,,,0,4,4,4,1,,,,,,,,,,,,,,,,,,,,,,,,,,,,,,,,
,,,,,,,,,,,,,,182,1,2023-05-15_08h33.50.564,Online_SceneSrcMD_E,2020.2.10,MacIntel,60,,,,,p,1,2.827,,,,,,E2-9040comp.png,p,,,,,,,,,,,,,,,,,,,,,,,,,,,,,,,,,,0,5,5,5,1,,,,,,,,,,,,,,,,,,,,,,,,,,,,,,,,
,,,,,,,,,,,,,,182,1,2023-05-15_08h33.50.564,Online_SceneSrcMD_E,2020.2.10,MacIntel,60,,,,,p,1,1.473,,,,,,N2-4603comp.png,p,,,,,,,,,,,,,,,,,,,,,,,,,,,,,,,,,,0,6,6,6,1,,,,,,,,,,,,,,,,,,,,,,,,,,,,,,,,
,,,,,,,,,,,,,,182,1,2023-05-15_08h33.50.564,Online_SceneSrcMD_E,2020.2.10,MacIntel,60,,,,,q,1,2.274,,,,,,E2-9140comp.png,q,,,,,,,,,,,,,,,,,,,,,,,,,,,,,,,,,,0,7,7,7,1,,,,,,,,,,,,,,,,,,,,,,,,,,,,,,,,
,,,,,,,,,,,,,,182,1,2023-05-15_08h33.50.564,Online_SceneSrcMD_E,2020.2.10,MacIntel,60,,,,,q,0,2.54,,,,,,E2-9410comp.png,p,,,,,,,,,,,,,,,,,,,,,,,,,,,,,,,,,,0,8,8,8,1,,,,,,,,,,,,,,,,,,,,,,,,,,,,,,,,
,,,,,,,,,,,,,,182,1,2023-05-15_08h33.50.564,Online_SceneSrcMD_E,2020.2.10,MacIntel,60,,,,,q,1,2.474,,,,,,N2-5875comp.png,q,,,,,,,,,,,,,,,,,,,,,,,,,,,,,,,,,,0,9,9,9,1,,,,,,,,,,,,,,,,,,,,,,,,,,,,,,,,
,,,,,,,,,,,,,,182,1,2023-05-15_08h33.50.564,Online_SceneSrcMD_E,2020.2.10,MacIntel,60,,,,,q,1,1.301,,,,,,N2-8465comp.png,q,,,,,,,,,,,,,,,,,,,,,,,,,,,,,,,,,,0,10,10,10,1,,,,,,,,,,,,,,,,,,,,,,,,,,,,,,,,
,,,,,,,,,,,,,,182,1,2023-05-15_08h33.50.564,Online_SceneSrcMD_E,2020.2.10,MacIntel,60,,,,,p,1,2.009,,,,,,E2-9424comp.png,p,,,,,,,,,,,,,,,,,,,,,,,,,,,,,,,,,,0,11,11,11,1,,,,,,,,,,,,,,,,,,,,,,,,,,,,,,,,
,,,,,,,,,,,,,,182,1,2023-05-15_08h33.50.564,Online_SceneSrcMD_E,2020.2.10,MacIntel,60,,,,,q,0,3.453,,,,,,N2-1910comp.png,p,,,,,,,,,,,,,,,,,,,,,,,,,,,,,,,,,,0,12,12,12,1,,,,,,,,,,,,,,,,,,,,,,,,,,,,,,,,
,,,,,,,,,,,,,,182,1,2023-05-15_08h33.50.564,Online_SceneSrcMD_E,2020.2.10,MacIntel,60,,,,,q,1,3.119,,,,,,E2-9500comp.png,q,,,,,,,,,,,,,,,,,,,,,,,,,,,,,,,,,,0,13,13,13,1,,,,,,,,,,,,,,,,,,,,,,,,,,,,,,,,
,,,,,,,,,,,,,,182,1,2023-05-15_08h33.50.564,Online_SceneSrcMD_E,2020.2.10,MacIntel,60,,,,,q,1,1.595,,,,,,E2-6540comp.png,q,,,,,,,,,,,,,,,,,,,,,,,,,,,,,,,,,,0,14,14,14,1,,,,,,,,,,,,,,,,,,,,,,,,,,,,,,,,
,,,,,,,,,,,,,,182,1,2023-05-15_08h33.50.564,Online_SceneSrcMD_E,2020.2.10,MacIntel,60,,,,,q,1,1.286,,,,,,N2-2616comp.png,q,,,,,,,,,,,,,,,,,,,,,,,,,,,,,,,,,,0,15,15,15,1,,,,,,,,,,,,,,,,,,,,,,,,,,,,,,,,
,,,,,,,,,,,,,,182,1,2023-05-15_08h33.50.564,Online_SceneSrcMD_E,2020.2.10,MacIntel,60,,,,,q,1,2.22,,,,,,N2-2221comp.png,q,,,,,,,,,,,,,,,,,,,,,,,,,,,,,,,,,,0,16,16,16,1,,,,,,,,,,,,,,,,,,,,,,,,,,,,,,,,
,,,,,,,,,,,,,,182,1,2023-05-15_08h33.50.564,Online_SceneSrcMD_E,2020.2.10,MacIntel,60,,,,,q,1,2.255,,,,,,E2-8230comp.png,q,,,,,,,,,,,,,,,,,,,,,,,,,,,,,,,,,,0,17,17,17,1,,,,,,,,,,,,,,,,,,,,,,,,,,,,,,,,
,,,,,,,,,,,,,,182,1,2023-05-15_08h33.50.564,Online_SceneSrcMD_E,2020.2.10,MacIntel,60,,,,,p,0,3.809,,,,,,N2-2499comp.png,q,,,,,,,,,,,,,,,,,,,,,,,,,,,,,,,,,,0,18,18,18,1,,,,,,,,,,,,,,,,,,,,,,,,,,,,,,,,
,,,,,,,,,,,,,,182,1,2023-05-15_08h33.50.564,Online_SceneSrcMD_E,2020.2.10,MacIntel,60,,,,,p,0,2.211,,,,,,E2-9622comp.png,q,,,,,,,,,,,,,,,,,,,,,,,,,,,,,,,,,,0,19,19,19,1,,,,,,,,,,,,,,,,,,,,,,,,,,,,,,,,
,,,,,,,,,,,,,,182,1,2023-05-15_08h33.50.564,Online_SceneSrcMD_E,2020.2.10,MacIntel,60,,,,,,,,,,,,,,,,,,,,,,,,,,,,,,,,,,,,,,,,,,,,,,,,,,,,,,,space,3.846,,,,,,,,,,,,,,0,0,0,0,1,,,,,,,,,,
,,,,,,,,,,,,,,182,1,2023-05-15_08h33.50.564,Online_SceneSrcMD_E,2020.2.10,MacIntel,60,,,,,,,,,,,,,,,,,,,,,,,,,,,,,,,,,,,,,,,,,,,,,,,,,,,,,,,,,,,,,,,0,1,1,1,1,BlockFive.csv,ColorCheck.csv,,,,,,,,,,,,,,,
,,,,,,,,,,,,,,182,1,2023-05-15_08h33.50.564,Online_SceneSrcMD_E,2020.2.10,MacIntel,60,,,,,p,1,1.606,,,,,,E2-9230comp.png,p,,,,,,,,,,,,,,,,,,,,,,,,,,,,,,,,,,0,0,0,0,1,,,,,,,,,,,,,,,,,,,,,,,,,,,,,,,,
,,,,,,,,,,,,,,182,1,2023-05-15_08h33.50.564,Online_SceneSrcMD_E,2020.2.10,MacIntel,60,,,,,p,1,1.885,,,,,,N2-2235comp.png,p,,,,,,,,,,,,,,,,,,,,,,,,,,,,,,,,,,0,1,1,1,1,,,,,,,,,,,,,,,,,,,,,,,,,,,,,,,,
,,,,,,,,,,,,,,182,1,2023-05-15_08h33.50.564,Online_SceneSrcMD_E,2020.2.10,MacIntel,60,,,,,q,0,2.376,,,,,,N2-8280comp.png,p,,,,,,,,,,,,,,,,,,,,,,,,,,,,,,,,,,0,2,2,2,1,,,,,,,,,,,,,,,,,,,,,,,,,,,,,,,,
,,,,,,,,,,,,,,182,1,2023-05-15_08h33.50.564,Online_SceneSrcMD_E,2020.2.10,MacIntel,60,,,,,p,1,2.636,,,,,,E2-3266comp.png,p,,,,,,,,,,,,,,,,,,,,,,,,,,,,,,,,,,0,3,3,3,1,,,,,,,,,,,,,,,,,,,,,,,,,,,,,,,,
,,,,,,,,,,,,,,182,1,2023-05-15_08h33.50.564,Online_SceneSrcMD_E,2020.2.10,MacIntel,60,,,,,q,0,2.936,,,,,,N2-7560comp.png,p,,,,,,,,,,,,,,,,,,,,,,,,,,,,,,,,,,0,4,4,4,1,,,,,,,,,,,,,,,,,,,,,,,,,,,,,,,,
,,,,,,,,,,,,,,182,1,2023-05-15_08h33.50.564,Online_SceneSrcMD_E,2020.2.10,MacIntel,60,,,,,p,1,2.256,,,,,,E2-9920comp.png,p,,,,,,,,,,,,,,,,,,,,,,,,,,,,,,,,,,0,5,5,5,1,,,,,,,,,,,,,,,,,,,,,,,,,,,,,,,,
,,,,,,,,,,,,,,182,1,2023-05-15_08h33.50.564,Online_SceneSrcMD_E,2020.2.10,MacIntel,60,,,,,p,1,1.975,,,,,,N2-2579comp.png,p,,,,,,,,,,,,,,,,,,,,,,,,,,,,,,,,,,0,6,6,6,1,,,,,,,,,,,,,,,,,,,,,,,,,,,,,,,,
,,,,,,,,,,,,,,182,1,2023-05-15_08h33.50.564,Online_SceneSrcMD_E,2020.2.10,MacIntel,60,,,,,p,1,1.353,,,,,,N2-7491comp.png,p,,,,,,,,,,,,,,,,,,,,,,,,,,,,,,,,,,0,7,7,7,1,,,,,,,,,,,,,,,,,,,,,,,,,,,,,,,,
,,,,,,,,,,,,,,182,1,2023-05-15_08h33.50.564,Online_SceneSrcMD_E,2020.2.10,MacIntel,60,,,,,q,1,1.82,,,,,,E2-3230comp.png,q,,,,,,,,,,,,,,,,,,,,,,,,,,,,,,,,,,0,8,8,8,1,,,,,,,,,,,,,,,,,,,,,,,,,,,,,,,,
,,,,,,,,,,,,,,182,1,2023-05-15_08h33.50.564,Online_SceneSrcMD_E,2020.2.10,MacIntel,60,,,,,p,1,2.237,,,,,,E2-2683comp.png,p,,,,,,,,,,,,,,,,,,,,,,,,,,,,,,,,,,0,9,9,9,1,,,,,,,,,,,,,,,,,,,,,,,,,,,,,,,,
,,,,,,,,,,,,,,182,1,2023-05-15_08h33.50.564,Online_SceneSrcMD_E,2020.2.10,MacIntel,60,,,,,p,1,1.353,,,,,,N2-7600comp.png,p,,,,,,,,,,,,,,,,,,,,,,,,,,,,,,,,,,0,10,10,10,1,,,,,,,,,,,,,,,,,,,,,,,,,,,,,,,,
,,,,,,,,,,,,,,182,1,2023-05-15_08h33.50.564,Online_SceneSrcMD_E,2020.2.10,MacIntel,60,,,,,q,1,3.073,,,,,,E2-3400comp.png,q,,,,,,,,,,,,,,,,,,,,,,,,,,,,,,,,,,0,11,11,11,1,,,,,,,,,,,,,,,,,,,,,,,,,,,,,,,,
,,,,,,,,,,,,,,182,1,2023-05-15_08h33.50.564,Online_SceneSrcMD_E,2020.2.10,MacIntel,60,,,,,q,0,3.289,,,,,,E2-9265comp.png,p,,,,,,,,,,,,,,,,,,,,,,,,,,,,,,,,,,0,12,12,12,1,,,,,,,,,,,,,,,,,,,,,,,,,,,,,,,,
,,,,,,,,,,,,,,182,1,2023-05-15_08h33.50.564,Online_SceneSrcMD_E,2020.2.10,MacIntel,60,,,,,p,1,1.312,,,,,,N2-2518comp.png,p,,,,,,,,,,,,,,,,,,,,,,,,,,,,,,,,,,0,13,13,13,1,,,,,,,,,,,,,,,,,,,,,,,,,,,,,,,,
,,,,,,,,,,,,,,182,1,2023-05-15_08h33.50.564,Online_SceneSrcMD_E,2020.2.10,MacIntel,60,,,,,q,1,2.27,,,,,,E2-3069comp.png,q,,,,,,,,,,,,,,,,,,,,,,,,,,,,,,,,,,0,14,14,14,1,,,,,,,,,,,,,,,,,,,,,,,,,,,,,,,,
,,,,,,,,,,,,,,182,1,2023-05-15_08h33.50.564,Online_SceneSrcMD_E,2020.2.10,MacIntel,60,,,,,p,1,2.489,,,,,,N2-2200comp.png,p,,,,,,,,,,,,,,,,,,,,,,,,,,,,,,,,,,0,15,15,15,1,,,,,,,,,,,,,,,,,,,,,,,,,,,,,,,,
,,,,,,,,,,,,,,182,1,2023-05-15_08h33.50.564,Online_SceneSrcMD_E,2020.2.10,MacIntel,60,,,,,q,0,2.104,,,,,,N2-7546comp.png,p,,,,,,,,,,,,,,,,,,,,,,,,,,,,,,,,,,0,16,16,16,1,,,,,,,,,,,,,,,,,,,,,,,,,,,,,,,,
,,,,,,,,,,,,,,182,1,2023-05-15_08h33.50.564,Online_SceneSrcMD_E,2020.2.10,MacIntel,60,,,,,q,1,1.944,,,,,,E2-3500comp.png,q,,,,,,,,,,,,,,,,,,,,,,,,,,,,,,,,,,0,17,17,17,1,,,,,,,,,,,,,,,,,,,,,,,,,,,,,,,,
,,,,,,,,,,,,,,182,1,2023-05-15_08h33.50.564,Online_SceneSrcMD_E,2020.2.10,MacIntel,60,,,,,q,1,1.689,,,,,,E2-3170comp.png,q,,,,,,,,,,,,,,,,,,,,,,,,,,,,,,,,,,0,18,18,18,1,,,,,,,,,,,,,,,,,,,,,,,,,,,,,,,,
,,,,,,,,,,,,,,182,1,2023-05-15_08h33.50.564,Online_SceneSrcMD_E,2020.2.10,MacIntel,60,,,,,p,1,1.952,,,,,,N2-2606comp.png,p,,,,,,,,,,,,,,,,,,,,,,,,,,,,,,,,,,0,19,19,19,1,,,,,,,,,,,,,,,,,,,,,,,,,,,,,,,,
,,,,,,,,,,,,,,182,1,2023-05-15_08h33.50.564,Online_SceneSrcMD_E,2020.2.10,MacIntel,60,,,,,,,,,,,,,,,,,,,,,,,,,,,,,,,,,,,,,,,,,,,,,,,,,,,,,,,space,3.029,,,,,,,,,,,,,,0,0,0,0,1,,,,,,,,,,
,,,,,,,,,,,,,,182,1,2023-05-15_08h33.50.564,Online_SceneSrcMD_E,2020.2.10,MacIntel,60,,,,,,,,,,,,,,,,,,,,,,,,,,,,,,,,,,,,,,,,,,,,,,,,,,,,,,,,,,,,,,,0,2,2,2,1,BlockSix.csv,ColorCheck.csv,,,,,,,,,,,,,,,
,,,,,,,,,,,,,,182,1,2023-05-15_08h33.50.564,Online_SceneSrcMD_E,2020.2.10,MacIntel,60,,,,,,,,,,,,,,,,,,,,,,,,,,,,space,6.401,a,1,0.927,,,,,,E,a,White,,,,,,,,,,,,,,,,,,,,,,,,,,,,,,,,,,,0,0,0,0,1,,,,,
,,,,,,,,,,,,,,182,1,2023-05-15_08h33.50.564,Online_SceneSrcMD_E,2020.2.10,MacIntel,60,,,,,,,,,,,,,,,,,,,,,,,,,,,,,,n,1,0.873,,,,,,1,n,White,,,,,,,,,,,,,,,,,,,,,,,,,,,,,,,,,,,0,1,1,1,1,,,,,
,,,,,,,,,,,,,,182,1,2023-05-15_08h33.50.564,Online_SceneSrcMD_E,2020.2.10,MacIntel,60,,,,,,,,,,,,,,,,,,,,,,,,,,,,,,n,1,2.009,,,,,,6,n,White,,,,,,,,,,,,,,,,,,,,,,,,,,,,,,,,,,,0,2,2,2,1,,,,,
,,,,,,,,,,,,,,182,1,2023-05-15_08h33.50.564,Online_SceneSrcMD_E,2020.2.10,MacIntel,60,,,,,,,,,,,,,,,,,,,,,,,,,,,,,,a,1,1.806,,,,,,O,a,White,,,,,,,,,,,,,,,,,,,,,,,,,,,,,,,,,,,0,3,3,3,1,,,,,
,,,,,,,,,,,,,,182,1,2023-05-15_08h33.50.564,Online_SceneSrcMD_E,2020.2.10,MacIntel,60,,,,,,,,,,,,,,,,,,,,,,,,,,,,,,n,1,0.543,,,,,,5,n,White,,,,,,,,,,,,,,,,,,,,,,,,,,,,,,,,,,,0,4,4,4,1,,,,,
,,,,,,,,,,,,,,182,1,2023-05-15_08h33.50.564,Online_SceneSrcMD_E,2020.2.10,MacIntel,60,,,,,,,,,,,,,,,,,,,,,,,,,,,,,,n,1,0.796,,,,,,7,n,White,,,,,,,,,,,,,,,,,,,,,,,,,,,,,,,,,,,0,5,5,5,1,,,,,
,,,,,,,,,,,,,,182,1,2023-05-15_08h33.50.564,Online_SceneSrcMD_E,2020.2.10,MacIntel,60,,,,,,,,,,,,,,,,,,,,,,,,,,,,,,n,1,0.843,,,,,,8,n,White,,,,,,,,,,,,,,,,,,,,,,,,,,,,,,,,,,,0,6,6,6,1,,,,,
,,,,,,,,,,,,,,182,1,2023-05-15_08h33.50.564,Online_SceneSrcMD_E,2020.2.10,MacIntel,60,,,,,,,,,,,,,,,,,,,,,,,,,,,,,,n,1,0.924,,,,,,6,n,White,,,,,,,,,,,,,,,,,,,,,,,,,,,,,,,,,,,0,7,7,7,1,,,,,
,,,,,,,,,,,,,,182,1,2023-05-15_08h33.50.564,Online_SceneSrcMD_E,2020.2.10,MacIntel,60,,,,,,,,,,,,,,,,,,,,,,,,,,,,,,a,1,1.01,,,,,,Z,a,White,,,,,,,,,,,,,,,,,,,,,,,,,,,,,,,,,,,0,8,8,8,1,,,,,
,,,,,,,,,,,,,,182,1,2023-05-15_08h33.50.564,Online_SceneSrcMD_E,2020.2.10,MacIntel,60,,,,,,,,,,,,,,,,,,,,,,,,,,,,,,a,1,1.439,,,,,,B,a,White,,,,,,,,,,,,,,,,,,,,,,,,,,,,,,,,,,,0,9,9,9,1,,,,,
,,,,,,,,,,,,,,182,1,2023-05-15_08h33.50.564,Online_SceneSrcMD_E,2020.2.10,MacIntel,60,,,,,,,,,,,,,,,,,,,,,,,,,,,,,,n,1,1.345,,,,,,5,n,White,,,,,,,,,,,,,,,,,,,,,,,,,,,,,,,,,,,0,10,10,10,1,,,,,
,,,,,,,,,,,,,,182,1,2023-05-15_08h33.50.564,Online_SceneSrcMD_E,2020.2.10,MacIntel,60,,,,,,,,,,,,,,,,,,,,,,,,,,,,,,a,1,0.909,,,,,,G,a,White,,,,,,,,,,,,,,,,,,,,,,,,,,,,,,,,,,,0,11,11,11,1,,,,,
,,,,,,,,,,,,,,182,1,2023-05-15_08h33.50.564,Online_SceneSrcMD_E,2020.2.10,MacIntel,60,,,,,,,,,,,,,,,,,,,,,,,,,,,,,,n,1,0.882,,,,,,5,n,White,,,,,,,,,,,,,,,,,,,,,,,,,,,,,,,,,,,0,12,12,12,1,,,,,
,,,,,,,,,,,,,,182,1,2023-05-15_08h33.50.564,Online_SceneSrcMD_E,2020.2.10,MacIntel,60,,,,,,,,,,,,,,,,,,,,,,,,,,,,,,a,1,1.245,,,,,,D,a,White,,,,,,,,,,,,,,,,,,,,,,,,,,,,,,,,,,,0,13,13,13,1,,,,,
,,,,,,,,,,,,,,182,1,2023-05-15_08h33.50.564,Online_SceneSrcMD_E,2020.2.10,MacIntel,60,,,,,,,,,,,,,,,,,,,,,,,,,,,,,,a,1,1.114,,,,,,P,a,White,,,,,,,,,,,,,,,,,,,,,,,,,,,,,,,,,,,0,14,14,14,1,,,,,
,,,,,,,,,,,,,,182,1,2023-05-15_08h33.50.564,Online_SceneSrcMD_E,2020.2.10,MacIntel,60,,,,,,,,,,,,,,,,,,,,,,,,,,,,,,n,1,1.14,,,,,,2,n,White,,,,,,,,,,,,,,,,,,,,,,,,,,,,,,,,,,,0,15,15,15,1,,,,,
,,,,,,,,,,,,,,182,1,2023-05-15_08h33.50.564,Online_SceneSrcMD_E,2020.2.10,MacIntel,60,,,,,,,,,,,,,,,,,,,,,,,,,,,,,,n,1,0.657,,,,,,7,n,White,,,,,,,,,,,,,,,,,,,,,,,,,,,,,,,,,,,0,16,16,16,1,,,,,
,,,,,,,,,,,,,,182,1,2023-05-15_08h33.50.564,Online_SceneSrcMD_E,2020.2.10,MacIntel,60,,,,,,,,,,,,,,,,,,,,,,,,,,,,,,n,1,0.675,,,,,,7,n,White,,,,,,,,,,,,,,,,,,,,,,,,,,,,,,,,,,,0,17,17,17,1,,,,,
,,,,,,,,,,,,,,182,1,2023-05-15_08h33.50.564,Online_SceneSrcMD_E,2020.2.10,MacIntel,60,,,,,,,,,,,,,,,,,,,,,,,,,,,,,,a,1,0.888,,,,,,K,a,White,,,,,,,,,,,,,,,,,,,,,,,,,,,,,,,,,,,0,18,18,18,1,,,,,
,,,,,,,,,,,,,,182,1,2023-05-15_08h33.50.564,Online_SceneSrcMD_E,2020.2.10,MacIntel,60,,,,,,,,,,,,,,,,,,,,,,,,,,,,,,a,1,0.99,,,,,,D,a,White,,,,,,,,,,,,,,,,,,,,,,,,,,,,,,,,,,,0,19,19,19,1,,,,,
,,,,,,,,,,,,,,182,1,2023-05-15_08h33.50.564,Online_SceneSrcMD_E,2020.2.10,MacIntel,60,,,,,,,,,,,,,,,,,,,,,,,,,,,,,,a,1,1.374,,,,,,I,a,White,,,,,,,,,,,,,,,,,,,,,,,,,,,,,,,,,,,0,20,20,20,1,,,,,
,,,,,,,,,,,,,,182,1,2023-05-15_08h33.50.564,Online_SceneSrcMD_E,2020.2.10,MacIntel,60,,,,,,,,,,,,,,,,,,,,,,,,,,,,,,n,1,0.806,,,,,,7,n,White,,,,,,,,,,,,,,,,,,,,,,,,,,,,,,,,,,,0,21,21,21,1,,,,,
,,,,,,,,,,,,,,182,1,2023-05-15_08h33.50.564,Online_SceneSrcMD_E,2020.2.10,MacIntel,60,,,,,,,,,,,,,,,,,,,,,,,,,,,,,,a,1,1.082,,,,,,R,a,White,,,,,,,,,,,,,,,,,,,,,,,,,,,,,,,,,,,0,22,22,22,1,,,,,
,,,,,,,,,,,,,,182,1,2023-05-15_08h33.50.564,Online_SceneSrcMD_E,2020.2.10,MacIntel,60,,,,,,,,,,,,,,,,,,,,,,,,,,,,,,a,1,1.04,,,,,,E,a,White,,,,,,,,,,,,,,,,,,,,,,,,,,,,,,,,,,,0,23,23,23,1,,,,,
,,,,,,,,,,,,,,182,1,2023-05-15_08h33.50.564,Online_SceneSrcMD_E,2020.2.10,MacIntel,60,,,,,,,,,,,,,,,,,,,,,,,,,,,,,,n,1,0.776,,,,,,8,n,White,,,,,,,,,,,,,,,,,,,,,,,,,,,,,,,,,,,0,24,24,24,1,,,,,
,,,,,,,,,,,,,,182,1,2023-05-15_08h33.50.564,Online_SceneSrcMD_E,2020.2.10,MacIntel,60,,,,,,,,,,,,,,,,,,,,,,,,,,,,,,a,1,0.94,,,,,,T,a,White,,,,,,,,,,,,,,,,,,,,,,,,,,,,,,,,,,,0,25,25,25,1,,,,,
,,,,,,,,,,,,,,182,1,2023-05-15_08h33.50.564,Online_SceneSrcMD_E,2020.2.10,MacIntel,60,,,,,,,,,,,,,,,,,,,,,,,,,,,,,,n,1,1.146,,,,,,0,n,White,,,,,,,,,,,,,,,,,,,,,,,,,,,,,,,,,,,0,26,26,26,1,,,,,
,,,,,,,,,,,,,,182,1,2023-05-15_08h33.50.564,Online_SceneSrcMD_E,2020.2.10,MacIntel,60,,,,,,,,,,,,,,,,,,,,,,,,,,,,,,a,1,0.797,,,,,,Q,a,White,,,,,,,,,,,,,,,,,,,,,,,,,,,,,,,,,,,0,27,27,27,1,,,,,
,,,,,,,,,,,,,,182,1,2023-05-15_08h33.50.564,Online_SceneSrcMD_E,2020.2.10,MacIntel,60,,,,,,,,,,,,,,,,,,,,,,,,,,,,,,n,1,1.259,,,,,,1,n,White,,,,,,,,,,,,,,,,,,,,,,,,,,,,,,,,,,,0,28,28,28,1,,,,,
,,,,,,,,,,,,,,182,1,2023-05-15_08h33.50.564,Online_SceneSrcMD_E,2020.2.10,MacIntel,60,,,,,,,,,,,,,,,,,,,,,,,,,,,,,,n,1,1.158,,,,,,2,n,White,,,,,,,,,,,,,,,,,,,,,,,,,,,,,,,,,,,0,29,29,29,1,,,,,
,,,,,,,,,,,,,,182,1,2023-05-15_08h33.50.564,Online_SceneSrcMD_E,2020.2.10,MacIntel,60,,,,,,,,,,,,,,,,,,,,,,,,,,,,,,n,1,0.913,,,,,,3,n,White,,,,,,,,,,,,,,,,,,,,,,,,,,,,,,,,,,,0,30,30,30,1,,,,,
,,,,,,,,,,,,,,182,1,2023-05-15_08h33.50.564,Online_SceneSrcMD_E,2020.2.10,MacIntel,60,,,,,,,,,,,,,,,,,,,,,,,,,,,,,,a,1,1.96,,,,,,L,a,White,,,,,,,,,,,,,,,,,,,,,,,,,,,,,,,,,,,0,31,31,31,1,,,,,
,,,,,,,,,,,,,,182,1,2023-05-15_08h33.50.564,Online_SceneSrcMD_E,2020.2.10,MacIntel,60,,,,,,,,,,,,,,,,,,,,,,,,,,,,,,a,1,0.745,,,,,,Y,a,White,,,,,,,,,,,,,,,,,,,,,,,,,,,,,,,,,,,0,32,32,32,1,,,,,
,,,,,,,,,,,,,,182,1,2023-05-15_08h33.50.564,Online_SceneSrcMD_E,2020.2.10,MacIntel,60,,,,,,,,,,,,,,,,,,,,,,,,,,,,,,n,1,0.688,,,,,,8,n,White,,,,,,,,,,,,,,,,,,,,,,,,,,,,,,,,,,,0,33,33,33,1,,,,,
,,,,,,,,,,,,,,182,1,2023-05-15_08h33.50.564,Online_SceneSrcMD_E,2020.2.10,MacIntel,60,,,,,,,,,,,,,,,,,,,,,,,,,,,,,,,,,,,,,,,,,,,,,,ZeroBlock.csv,Block 1,,,,,,,,,,,,,,,,,,,,,,,,,,,,,,,,,0,0,0,0,1
,,,,,,,,,,,,,,182,1,2023-05-15_08h33.50.564,Online_SceneSrcMD_E,2020.2.10,MacIntel,60,,,,,,,,,,,,,,,,,,,,,,,,,,,,,,n,1,0.93,,,,,,6,n,White,,,,,,,,,,,,,,,,,,,,,,,,,,,,,,,,,,,0,0,0,0,1,,,,,
,,,,,,,,,,,,,,182,1,2023-05-15_08h33.50.564,Online_SceneSrcMD_E,2020.2.10,MacIntel,60,,,,,,,,,,,,,,,,,,,,,,,,,,,,,,n,1,0.798,,,,,,1,n,White,,,,,,,,,,,,,,,,,,,,,,,,,,,,,,,,,,,0,1,1,1,1,,,,,
,,,,,,,,,,,,,,182,1,2023-05-15_08h33.50.564,Online_SceneSrcMD_E,2020.2.10,MacIntel,60,,,,,,,,,,,,,,,,,,,,,,,,,,,,,,a,1,1.089,,,,,,B,a,White,,,,,,,,,,,,,,,,,,,,,,,,,,,,,,,,,,,0,2,2,2,1,,,,,
,,,,,,,,,,,,,,182,1,2023-05-15_08h33.50.564,Online_SceneSrcMD_E,2020.2.10,MacIntel,60,,,,,,,,,,,,,,,,,,,,,,,,,,,,,,n,1,0.723,,,,,,4,n,White,,,,,,,,,,,,,,,,,,,,,,,,,,,,,,,,,,,0,3,3,3,1,,,,,
,,,,,,,,,,,,,,182,1,2023-05-15_08h33.50.564,Online_SceneSrcMD_E,2020.2.10,MacIntel,60,,,,,,,,,,,,,,,,,,,,,,,,,,,,,,n,1,0.626,,,,,,3,n,White,,,,,,,,,,,,,,,,,,,,,,,,,,,,,,,,,,,0,4,4,4,1,,,,,
,,,,,,,,,,,,,,182,1,2023-05-15_08h33.50.564,Online_SceneSrcMD_E,2020.2.10,MacIntel,60,,,,,,,,,,,,,,,,,,,,,,,,,,,,,,n,1,0.705,,,,,,2,n,White,,,,,,,,,,,,,,,,,,,,,,,,,,,,,,,,,,,0,5,5,5,1,,,,,
,,,,,,,,,,,,,,182,1,2023-05-15_08h33.50.564,Online_SceneSrcMD_E,2020.2.10,MacIntel,60,,,,,,,,,,,,,,,,,,,,,,,,,,,,,,n,1,0.606,,,,,,5,n,White,,,,,,,,,,,,,,,,,,,,,,,,,,,,,,,,,,,0,6,6,6,1,,,,,
,,,,,,,,,,,,,,182,1,2023-05-15_08h33.50.564,Online_SceneSrcMD_E,2020.2.10,MacIntel,60,,,,,,,,,,,,,,,,,,,,,,,,,,,,,,n,1,0.693,,,,,,3,n,White,,,,,,,,,,,,,,,,,,,,,,,,,,,,,,,,,,,0,7,7,7,1,,,,,
,,,,,,,,,,,,,,182,1,2023-05-15_08h33.50.564,Online_SceneSrcMD_E,2020.2.10,MacIntel,60,,,,,,,,,,,,,,,,,,,,,,,,,,,,,,a,1,1.256,,,,,,L,a,White,,,,,,,,,,,,,,,,,,,,,,,,,,,,,,,,,,,0,8,8,8,1,,,,,
,,,,,,,,,,,,,,182,1,2023-05-15_08h33.50.564,Online_SceneSrcMD_E,2020.2.10,MacIntel,60,,,,,,,,,,,,,,,,,,,,,,,,,,,,,,n,1,0.74,,,,,,8,n,White,,,,,,,,,,,,,,,,,,,,,,,,,,,,,,,,,,,0,9,9,9,1,,,,,
,,,,,,,,,,,,,,182,1,2023-05-15_08h33.50.564,Online_SceneSrcMD_E,2020.2.10,MacIntel,60,,,,,,,,,,,,,,,,,,,,,,,,,,,,,,a,1,0.839,,,,,,U,a,White,,,,,,,,,,,,,,,,,,,,,,,,,,,,,,,,,,,0,10,10,10,1,,,,,
,,,,,,,,,,,,,,182,1,2023-05-15_08h33.50.564,Online_SceneSrcMD_E,2020.2.10,MacIntel,60,,,,,,,,,,,,,,,,,,,,,,,,,,,,,,n,1,1.028,,,,,,3,n,White,,,,,,,,,,,,,,,,,,,,,,,,,,,,,,,,,,,0,11,11,11,1,,,,,
,,,,,,,,,,,,,,182,1,2023-05-15_08h33.50.564,Online_SceneSrcMD_E,2020.2.10,MacIntel,60,,,,,,,,,,,,,,,,,,,,,,,,,,,,,,n,1,0.971,,,,,,7,n,White,,,,,,,,,,,,,,,,,,,,,,,,,,,,,,,,,,,0,12,12,12,1,,,,,
,,,,,,,,,,,,,,182,1,2023-05-15_08h33.50.564,Online_SceneSrcMD_E,2020.2.10,MacIntel,60,,,,,,,,,,,,,,,,,,,,,,,,,,,,,,n,1,0.709,,,,,,6,n,White,,,,,,,,,,,,,,,,,,,,,,,,,,,,,,,,,,,0,13,13,13,1,,,,,
,,,,,,,,,,,,,,182,1,2023-05-15_08h33.50.564,Online_SceneSrcMD_E,2020.2.10,MacIntel,60,,,,,,,,,,,,,,,,,,,,,,,,,,,,,,a,1,0.688,,,,,,B,a,White,,,,,,,,,,,,,,,,,,,,,,,,,,,,,,,,,,,0,14,14,14,1,,,,,
,,,,,,,,,,,,,,182,1,2023-05-15_08h33.50.564,Online_SceneSrcMD_E,2020.2.10,MacIntel,60,,,,,,,,,,,,,,,,,,,,,,,,,,,,,,a,1,3.11,,,,,,M,a,White,,,,,,,,,,,,,,,,,,,,,,,,,,,,,,,,,,,0,15,15,15,1,,,,,
,,,,,,,,,,,,,,182,1,2023-05-15_08h33.50.564,Online_SceneSrcMD_E,2020.2.10,MacIntel,60,,,,,,,,,,,,,,,,,,,,,,,,,,,,,,n,1,0.898,,,,,,7,n,White,,,,,,,,,,,,,,,,,,,,,,,,,,,,,,,,,,,0,16,16,16,1,,,,,
,,,,,,,,,,,,,,182,1,2023-05-15_08h33.50.564,Online_SceneSrcMD_E,2020.2.10,MacIntel,60,,,,,,,,,,,,,,,,,,,,,,,,,,,,,,n,1,0.798,,,,,,1,n,White,,,,,,,,,,,,,,,,,,,,,,,,,,,,,,,,,,,0,17,17,17,1,,,,,
,,,,,,,,,,,,,,182,1,2023-05-15_08h33.50.564,Online_SceneSrcMD_E,2020.2.10,MacIntel,60,,,,,,,,,,,,,,,,,,,,,,,,,,,,,,n,1,1.506,,,,,,4,n,White,,,,,,,,,,,,,,,,,,,,,,,,,,,,,,,,,,,0,18,18,18,1,,,,,
,,,,,,,,,,,,,,182,1,2023-05-15_08h33.50.564,Online_SceneSrcMD_E,2020.2.10,MacIntel,60,,,,,,,,,,,,,,,,,,,,,,,,,,,,,,a,1,0.855,,,,,,Z,a,White,,,,,,,,,,,,,,,,,,,,,,,,,,,,,,,,,,,0,19,19,19,1,,,,,
,,,,,,,,,,,,,,182,1,2023-05-15_08h33.50.564,Online_SceneSrcMD_E,2020.2.10,MacIntel,60,,,,,,,,,,,,,,,,,,,,,,,,,,,,,,n,1,1.055,,,,,,5,n,White,,,,,,,,,,,,,,,,,,,,,,,,,,,,,,,,,,,0,20,20,20,1,,,,,
,,,,,,,,,,,,,,182,1,2023-05-15_08h33.50.564,Online_SceneSrcMD_E,2020.2.10,MacIntel,60,,,,,,,,,,,,,,,,,,,,,,,,,,,,,,a,1,0.709,,,,,,S,a,White,,,,,,,,,,,,,,,,,,,,,,,,,,,,,,,,,,,0,21,21,21,1,,,,,
,,,,,,,,,,,,,,182,1,2023-05-15_08h33.50.564,Online_SceneSrcMD_E,2020.2.10,MacIntel,60,,,,,,,,,,,,,,,,,,,,,,,,,,,,,,a,1,2.487,,,,,,V,a,White,,,,,,,,,,,,,,,,,,,,,,,,,,,,,,,,,,,0,22,22,22,1,,,,,
,,,,,,,,,,,,,,182,1,2023-05-15_08h33.50.564,Online_SceneSrcMD_E,2020.2.10,MacIntel,60,,,,,,,,,,,,,,,,,,,,,,,,,,,,,,n,1,1.971,,,,,,4,n,White,,,,,,,,,,,,,,,,,,,,,,,,,,,,,,,,,,,0,23,23,23,1,,,,,
,,,,,,,,,,,,,,182,1,2023-05-15_08h33.50.564,Online_SceneSrcMD_E,2020.2.10,MacIntel,60,,,,,,,,,,,,,,,,,,,,,,,,,,,,,,n,1,0.715,,,,,,6,n,White,,,,,,,,,,,,,,,,,,,,,,,,,,,,,,,,,,,0,24,24,24,1,,,,,
,,,,,,,,,,,,,,182,1,2023-05-15_08h33.50.564,Online_SceneSrcMD_E,2020.2.10,MacIntel,60,,,,,,,,,,,,,,,,,,,,,,,,,,,,,,n,1,0.722,,,,,,7,n,White,,,,,,,,,,,,,,,,,,,,,,,,,,,,,,,,,,,0,25,25,25,1,,,,,
,,,,,,,,,,,,,,182,1,2023-05-15_08h33.50.564,Online_SceneSrcMD_E,2020.2.10,MacIntel,60,,,,,,,,,,,,,,,,,,,,,,,,,,,,,,n,1,0.758,,,,,,5,n,White,,,,,,,,,,,,,,,,,,,,,,,,,,,,,,,,,,,0,26,26,26,1,,,,,
,,,,,,,,,,,,,,182,1,2023-05-15_08h33.50.564,Online_SceneSrcMD_E,2020.2.10,MacIntel,60,,,,,,,,,,,,,,,,,,,,,,,,,,,,,,n,1,1.03,,,,,,0,n,White,,,,,,,,,,,,,,,,,,,,,,,,,,,,,,,,,,,0,27,27,27,1,,,,,
,,,,,,,,,,,,,,182,1,2023-05-15_08h33.50.564,Online_SceneSrcMD_E,2020.2.10,MacIntel,60,,,,,,,,,,,,,,,,,,,,,,,,,,,,,,a,1,0.776,,,,,,G,a,White,,,,,,,,,,,,,,,,,,,,,,,,,,,,,,,,,,,0,28,28,28,1,,,,,
,,,,,,,,,,,,,,182,1,2023-05-15_08h33.50.564,Online_SceneSrcMD_E,2020.2.10,MacIntel,60,,,,,,,,,,,,,,,,,,,,,,,,,,,,,,a,1,0.759,,,,,,V,a,White,,,,,,,,,,,,,,,,,,,,,,,,,,,,,,,,,,,0,29,29,29,1,,,,,
,,,,,,,,,,,,,,182,1,2023-05-15_08h33.50.564,Online_SceneSrcMD_E,2020.2.10,MacIntel,60,,,,,,,,,,,,,,,,,,,,,,,,,,,,,,n,1,1.858,,,,,,5,n,White,,,,,,,,,,,,,,,,,,,,,,,,,,,,,,,,,,,0,30,30,30,1,,,,,
,,,,,,,,,,,,,,182,1,2023-05-15_08h33.50.564,Online_SceneSrcMD_E,2020.2.10,MacIntel,60,,,,,,,,,,,,,,,,,,,,,,,,,,,,,,n,1,0.656,,,,,,5,n,White,,,,,,,,,,,,,,,,,,,,,,,,,,,,,,,,,,,0,31,31,31,1,,,,,
,,,,,,,,,,,,,,182,1,2023-05-15_08h33.50.564,Online_SceneSrcMD_E,2020.2.10,MacIntel,60,,,,,,,,,,,,,,,,,,,,,,,,,,,,,,a,1,0.778,,,,,,Y,a,White,,,,,,,,,,,,,,,,,,,,,,,,,,,,,,,,,,,0,32,32,32,1,,,,,
,,,,,,,,,,,,,,182,1,2023-05-15_08h33.50.564,Online_SceneSrcMD_E,2020.2.10,MacIntel,60,,,,,,,,,,,,,,,,,,,,,,,,,,,,,,a,1,1.004,,,,,,R,a,White,,,,,,,,,,,,,,,,,,,,,,,,,,,,,,,,,,,0,33,33,33,1,,,,,
,,,,,,,,,,,,,,182,1,2023-05-15_08h33.50.564,Online_SceneSrcMD_E,2020.2.10,MacIntel,60,,,,,,,,,,,,,,,,,,,,,,,,,,,,,,,,,,,,,,,,,,,,,,OneBlock.csv,Block 2,,,,,,,,,,,,,,,,,,,,,,,,,,,,,,,,,0,1,1,1,1
,,,,,,,,,,,,,,182,1,2023-05-15_08h33.50.564,Online_SceneSrcMD_E,2020.2.10,MacIntel,60,,,,,,,,,,,,,,,,,,,,,,,,,,,,,,n,1,0.914,,,,,,3,n,White,,,,,,,,,,,,,,,,,,,,,,,,,,,,,,,,,,,0,0,0,0,1,,,,,
,,,,,,,,,,,,,,182,1,2023-05-15_08h33.50.564,Online_SceneSrcMD_E,2020.2.10,MacIntel,60,,,,,,,,,,,,,,,,,,,,,,,,,,,,,,a,0,2.481,,,,,,2,n,White,,,,,,,,,,,,,,,,,,,,,,,,,,,,,,,,,,,0,1,1,1,1,,,,,
,,,,,,,,,,,,,,182,1,2023-05-15_08h33.50.564,Online_SceneSrcMD_E,2020.2.10,MacIntel,60,,,,,,,,,,,,,,,,,,,,,,,,,,,,,,a,1,0.755,,,,,,E,a,White,,,,,,,,,,,,,,,,,,,,,,,,,,,,,,,,,,,0,2,2,2,1,,,,,
,,,,,,,,,,,,,,182,1,2023-05-15_08h33.50.564,Online_SceneSrcMD_E,2020.2.10,MacIntel,60,,,,,,,,,,,,,,,,,,,,,,,,,,,,,,n,1,0.755,,,,,,6,n,White,,,,,,,,,,,,,,,,,,,,,,,,,,,,,,,,,,,0,3,3,3,1,,,,,
,,,,,,,,,,,,,,182,1,2023-05-15_08h33.50.564,Online_SceneSrcMD_E,2020.2.10,MacIntel,60,,,,,,,,,,,,,,,,,,,,,,,,,,,,,,a,1,0.933,,,,,,I,a,White,,,,,,,,,,,,,,,,,,,,,,,,,,,,,,,,,,,0,4,4,4,1,,,,,
,,,,,,,,,,,,,,182,1,2023-05-15_08h33.50.564,Online_SceneSrcMD_E,2020.2.10,MacIntel,60,,,,,,,,,,,,,,,,,,,,,,,,,,,,,,n,1,1.11,,,,,,1,n,White,,,,,,,,,,,,,,,,,,,,,,,,,,,,,,,,,,,0,5,5,5,1,,,,,
,,,,,,,,,,,,,,182,1,2023-05-15_08h33.50.564,Online_SceneSrcMD_E,2020.2.10,MacIntel,60,,,,,,,,,,,,,,,,,,,,,,,,,,,,,,n,1,1.299,,,,,,6,n,White,,,,,,,,,,,,,,,,,,,,,,,,,,,,,,,,,,,0,6,6,6,1,,,,,
,,,,,,,,,,,,,,182,1,2023-05-15_08h33.50.564,Online_SceneSrcMD_E,2020.2.10,MacIntel,60,,,,,,,,,,,,,,,,,,,,,,,,,,,,,,a,1,0.857,,,,,,B,a,White,,,,,,,,,,,,,,,,,,,,,,,,,,,,,,,,,,,0,7,7,7,1,,,,,
,,,,,,,,,,,,,,182,1,2023-05-15_08h33.50.564,Online_SceneSrcMD_E,2020.2.10,MacIntel,60,,,,,,,,,,,,,,,,,,,,,,,,,,,,,,n,1,0.694,,,,,,9,n,White,,,,,,,,,,,,,,,,,,,,,,,,,,,,,,,,,,,0,8,8,8,1,,,,,
,,,,,,,,,,,,,,182,1,2023-05-15_08h33.50.564,Online_SceneSrcMD_E,2020.2.10,MacIntel,60,,,,,,,,,,,,,,,,,,,,,,,,,,,,,,n,1,0.725,,,,,,7,n,White,,,,,,,,,,,,,,,,,,,,,,,,,,,,,,,,,,,0,9,9,9,1,,,,,
,,,,,,,,,,,,,,182,1,2023-05-15_08h33.50.564,Online_SceneSrcMD_E,2020.2.10,MacIntel,60,,,,,,,,,,,,,,,,,,,,,,,,,,,,,,n,1,0.557,,,,,,7,n,White,,,,,,,,,,,,,,,,,,,,,,,,,,,,,,,,,,,0,10,10,10,1,,,,,
,,,,,,,,,,,,,,182,1,2023-05-15_08h33.50.564,Online_SceneSrcMD_E,2020.2.10,MacIntel,60,,,,,,,,,,,,,,,,,,,,,,,,,,,,,,a,1,1.007,,,,,,J,a,White,,,,,,,,,,,,,,,,,,,,,,,,,,,,,,,,,,,0,11,11,11,1,,,,,
,,,,,,,,,,,,,,182,1,2023-05-15_08h33.50.564,Online_SceneSrcMD_E,2020.2.10,MacIntel,60,,,,,,,,,,,,,,,,,,,,,,,,,,,,,,a,1,0.987,,,,,,H,a,White,,,,,,,,,,,,,,,,,,,,,,,,,,,,,,,,,,,0,12,12,12,1,,,,,
,,,,,,,,,,,,,,182,1,2023-05-15_08h33.50.564,Online_SceneSrcMD_E,2020.2.10,MacIntel,60,,,,,,,,,,,,,,,,,,,,,,,,,,,,,,n,1,0.972,,,,,,1,n,White,,,,,,,,,,,,,,,,,,,,,,,,,,,,,,,,,,,0,13,13,13,1,,,,,
,,,,,,,,,,,,,,182,1,2023-05-15_08h33.50.564,Online_SceneSrcMD_E,2020.2.10,MacIntel,60,,,,,,,,,,,,,,,,,,,,,,,,,,,,,,a,1,0.994,,,,,,H,a,White,,,,,,,,,,,,,,,,,,,,,,,,,,,,,,,,,,,0,14,14,14,1,,,,,
,,,,,,,,,,,,,,182,1,2023-05-15_08h33.50.564,Online_SceneSrcMD_E,2020.2.10,MacIntel,60,,,,,,,,,,,,,,,,,,,,,,,,,,,,,,n,1,1.327,,,,,,0,n,White,,,,,,,,,,,,,,,,,,,,,,,,,,,,,,,,,,,0,15,15,15,1,,,,,
,,,,,,,,,,,,,,182,1,2023-05-15_08h33.50.564,Online_SceneSrcMD_E,2020.2.10,MacIntel,60,,,,,,,,,,,,,,,,,,,,,,,,,,,,,,n,1,1.362,,,,,,1,n,White,,,,,,,,,,,,,,,,,,,,,,,,,,,,,,,,,,,0,16,16,16,1,,,,,
,,,,,,,,,,,,,,182,1,2023-05-15_08h33.50.564,Online_SceneSrcMD_E,2020.2.10,MacIntel,60,,,,,,,,,,,,,,,,,,,,,,,,,,,,,,a,1,1.063,,,,,,L,a,White,,,,,,,,,,,,,,,,,,,,,,,,,,,,,,,,,,,0,17,17,17,1,,,,,
,,,,,,,,,,,,,,182,1,2023-05-15_08h33.50.564,Online_SceneSrcMD_E,2020.2.10,MacIntel,60,,,,,,,,,,,,,,,,,,,,,,,,,,,,,,n,1,0.806,,,,,,6,n,White,,,,,,,,,,,,,,,,,,,,,,,,,,,,,,,,,,,0,18,18,18,1,,,,,
,,,,,,,,,,,,,,182,1,2023-05-15_08h33.50.564,Online_SceneSrcMD_E,2020.2.10,MacIntel,60,,,,,,,,,,,,,,,,,,,,,,,,,,,,,,n,1,1.095,,,,,,7,n,White,,,,,,,,,,,,,,,,,,,,,,,,,,,,,,,,,,,0,19,19,19,1,,,,,
,,,,,,,,,,,,,,182,1,2023-05-15_08h33.50.564,Online_SceneSrcMD_E,2020.2.10,MacIntel,60,,,,,,,,,,,,,,,,,,,,,,,,,,,,,,n,1,0.978,,,,,,9,n,White,,,,,,,,,,,,,,,,,,,,,,,,,,,,,,,,,,,0,20,20,20,1,,,,,
,,,,,,,,,,,,,,182,1,2023-05-15_08h33.50.564,Online_SceneSrcMD_E,2020.2.10,MacIntel,60,,,,,,,,,,,,,,,,,,,,,,,,,,,,,,a,1,1.062,,,,,,X,a,White,,,,,,,,,,,,,,,,,,,,,,,,,,,,,,,,,,,0,21,21,21,1,,,,,
,,,,,,,,,,,,,,182,1,2023-05-15_08h33.50.564,Online_SceneSrcMD_E,2020.2.10,MacIntel,60,,,,,,,,,,,,,,,,,,,,,,,,,,,,,,a,1,1.421,,,,,,W,a,White,,,,,,,,,,,,,,,,,,,,,,,,,,,,,,,,,,,0,22,22,22,1,,,,,
,,,,,,,,,,,,,,182,1,2023-05-15_08h33.50.564,Online_SceneSrcMD_E,2020.2.10,MacIntel,60,,,,,,,,,,,,,,,,,,,,,,,,,,,,,,n,1,1.294,,,,,,4,n,White,,,,,,,,,,,,,,,,,,,,,,,,,,,,,,,,,,,0,23,23,23,1,,,,,
,,,,,,,,,,,,,,182,1,2023-05-15_08h33.50.564,Online_SceneSrcMD_E,2020.2.10,MacIntel,60,,,,,,,,,,,,,,,,,,,,,,,,,,,,,,n,1,0.907,,,,,,5,n,White,,,,,,,,,,,,,,,,,,,,,,,,,,,,,,,,,,,0,24,24,24,1,,,,,
,,,,,,,,,,,,,,182,1,2023-05-15_08h33.50.564,Online_SceneSrcMD_E,2020.2.10,MacIntel,60,,,,,,,,,,,,,,,,,,,,,,,,,,,,,,a,1,1.016,,,,,,N,a,White,,,,,,,,,,,,,,,,,,,,,,,,,,,,,,,,,,,0,25,25,25,1,,,,,
,,,,,,,,,,,,,,182,1,2023-05-15_08h33.50.564,Online_SceneSrcMD_E,2020.2.10,MacIntel,60,,,,,,,,,,,,,,,,,,,,,,,,,,,,,,n,1,1.556,,,,,,5,n,White,,,,,,,,,,,,,,,,,,,,,,,,,,,,,,,,,,,0,26,26,26,1,,,,,
,,,,,,,,,,,,,,182,1,2023-05-15_08h33.50.564,Online_SceneSrcMD_E,2020.2.10,MacIntel,60,,,,,,,,,,,,,,,,,,,,,,,,,,,,,,a,1,0.942,,,,,,Y,a,White,,,,,,,,,,,,,,,,,,,,,,,,,,,,,,,,,,,0,27,27,27,1,,,,,
,,,,,,,,,,,,,,182,1,2023-05-15_08h33.50.564,Online_SceneSrcMD_E,2020.2.10,MacIntel,60,,,,,,,,,,,,,,,,,,,,,,,,,,,,,,a,1,0.916,,,,,,M,a,White,,,,,,,,,,,,,,,,,,,,,,,,,,,,,,,,,,,0,28,28,28,1,,,,,
,,,,,,,,,,,,,,182,1,2023-05-15_08h33.50.564,Online_SceneSrcMD_E,2020.2.10,MacIntel,60,,,,,,,,,,,,,,,,,,,,,,,,,,,,,,a,1,0.936,,,,,,U,a,White,,,,,,,,,,,,,,,,,,,,,,,,,,,,,,,,,,,0,29,29,29,1,,,,,
,,,,,,,,,,,,,,182,1,2023-05-15_08h33.50.564,Online_SceneSrcMD_E,2020.2.10,MacIntel,60,,,,,,,,,,,,,,,,,,,,,,,,,,,,,,n,1,0.963,,,,,,6,n,White,,,,,,,,,,,,,,,,,,,,,,,,,,,,,,,,,,,0,30,30,30,1,,,,,
,,,,,,,,,,,,,,182,1,2023-05-15_08h33.50.564,Online_SceneSrcMD_E,2020.2.10,MacIntel,60,,,,,,,,,,,,,,,,,,,,,,,,,,,,,,n,1,1.089,,,,,,6,n,White,,,,,,,,,,,,,,,,,,,,,,,,,,,,,,,,,,,0,31,31,31,1,,,,,
,,,,,,,,,,,,,,182,1,2023-05-15_08h33.50.564,Online_SceneSrcMD_E,2020.2.10,MacIntel,60,,,,,,,,,,,,,,,,,,,,,,,,,,,,,,a,1,1.907,,,,,,Y,a,White,,,,,,,,,,,,,,,,,,,,,,,,,,,,,,,,,,,0,32,32,32,1,,,,,
,,,,,,,,,,,,,,182,1,2023-05-15_08h33.50.564,Online_SceneSrcMD_E,2020.2.10,MacIntel,60,,,,,,,,,,,,,,,,,,,,,,,,,,,,,,a,1,0.989,,,,,,I,a,White,,,,,,,,,,,,,,,,,,,,,,,,,,,,,,,,,,,0,33,33,33,1,,,,,
,,,,,,,,,,,,,,182,1,2023-05-15_08h33.50.564,Online_SceneSrcMD_E,2020.2.10,MacIntel,60,,,,,,,,,,,,,,,,,,,,,,,,,,,,,,,,,,,,,,,,,,,,,,TwoBlock.csv,Block 3,,,,,,,,,,,,,,,,,,,,,,,,,,,,,,,,,0,2,2,2,1