Instructions_Loop.thisRepN,Instructions_Loop.thisTrialN,Instructions_Loop.thisN,Instructions_Loop.thisIndex,Instructions_Loop.ran,Top,Top_Bottom,TBMT_int,Middle_Top,Middle,Middle_Bottom,Bottom_Top,Bottom,Photo,participant,session,date,expName,psychopyVersion,OS,frameRate,Redo_Instructions_Resp.keys,Redo_Instructions_Resp.rt,Nback_Transition_Resp_Enc.keys,Nback_Transition_Resp_Enc.rt,Encoding_Resp.keys,Encoding_Resp.corr,Encoding_Resp.rt,Practice_Blocks.thisRepN,Practice_Blocks.thisTrialN,Practice_Blocks.thisN,Practice_Blocks.thisIndex,Practice_Blocks.ran,Scene,encAns,Practice_Enc_Break_Resp.keys,Practice_Enc_Break_Resp.rt,Practice_Enc_Break_Loop.thisRepN,Practice_Enc_Break_Loop.thisTrialN,Practice_Enc_Break_Loop.thisN,Practice_Enc_Break_Loop.thisIndex,Practice_Enc_Break_Loop.ran,Practice_Loop_Order.thisRepN,Practice_Loop_Order.thisTrialN,Practice_Loop_Order.thisN,Practice_Loop_Order.thisIndex,Practice_Loop_Order.ran,practiceFile,Nback_Transition_Resp.keys,Nback_Transition_Resp.rt,Nback_Resp.keys,Nback_Resp.corr,Nback_Resp.rt,Practice_DBack_Loop.thisRepN,Practice_DBack_Loop.thisTrialN,Practice_DBack_Loop.thisN,Practice_DBack_Loop.thisIndex,Practice_DBack_Loop.ran,thisAlphaNum,ANAns,Color,Practice_DBlock_Loop.thisRepN,Practice_DBlock_Loop.thisTrialN,Practice_DBlock_Loop.thisN,Practice_DBlock_Loop.thisIndex,Practice_DBlock_Loop.ran,ANOrder,BlockTitle,Blocks.thisRepN,Blocks.thisTrialN,Blocks.thisN,Blocks.thisIndex,Blocks.ran,AttnResp_keys.keys,AttnResp_keys.rt,Enc_Break_Resp.keys,Enc_Break_Resp.rt,Enc_Break_Loop.thisRepN,Enc_Break_Loop.thisTrialN,Enc_Break_Loop.thisN,Enc_Break_Loop.thisIndex,Enc_Break_Loop.ran,AttnCheck,Group_Order.thisRepN,Group_Order.thisTrialN,Group_Order.thisN,Group_Order.thisIndex,Group_Order.ran,blockFile,attnFile,Enc_Break_Loop2.thisRepN,Enc_Break_Loop2.thisTrialN,Enc_Break_Loop2.thisN,Enc_Break_Loop2.thisIndex,Enc_Break_Loop2.ran,DBack_Loop.thisRepN,DBack_Loop.thisTrialN,DBack_Loop.thisN,DBack_Loop.thisIndex,DBack_Loop.ran,DBlock_Loop.thisRepN,DBlock_Loop.thisTrialN,DBlock_Loop.thisN,DBlock_Loop.thisIndex,DBlock_Loop.ran
0,0,0,0,1,NaN,NaN,NaN,NaN,welcome,NaN,NaN,press SPACE to continue,Empty.png,218,1,2023-06-26_11h33.09.946,Online_SceneSrcMD_E,2020.2.10,MacIntel,60,,,,,,,,,,,,,,,,,,,,,,,,,,,,,,,,,,,,,,,,,,,,,,,,,,,,,,,,,,,,,,,,,,,,,,,,,,,,,,,,,,,,
0,1,1,1,1,NaN,NaN,NaN,in this experiment you will categorize images and symbols.,NaN,NaN,NaN,press SPACE to continue,Empty.png,218,1,2023-06-26_11h33.09.946,Online_SceneSrcMD_E,2020.2.10,MacIntel,60,,,,,,,,,,,,,,,,,,,,,,,,,,,,,,,,,,,,,,,,,,,,,,,,,,,,,,,,,,,,,,,,,,,,,,,,,,,,,,,,,,,,
0,2,2,2,1,"during the image categorization task, scenes will be presented on the screen one at a time.",NaN,NaN,each scene will be surrounded by a colored frame.,NaN,your task is to view each image and report if the frame color appears in the scene.,NaN,press SPACE to continue,Empty.png,218,1,2023-06-26_11h33.09.946,Online_SceneSrcMD_E,2020.2.10,MacIntel,60,,,,,,,,,,,,,,,,,,,,,,,,,,,,,,,,,,,,,,,,,,,,,,,,,,,,,,,,,,,,,,,,,,,,,,,,,,,,,,,,,,,,
0,3,3,3,1,"if the frame color is present in the scene, press 'P'.","otherwise, press 'Q'.",NaN,each image will be presented for four seconds.,NaN,please respond during this time.,NaN,press SPACE to continue,Empty.png,218,1,2023-06-26_11h33.09.946,Online_SceneSrcMD_E,2020.2.10,MacIntel,60,,,,,,,,,,,,,,,,,,,,,,,,,,,,,,,,,,,,,,,,,,,,,,,,,,,,,,,,,,,,,,,,,,,,,,,,,,,,,,,,,,,,
0,4,4,4,1,NaN,NaN,NaN,three blocks of images will be presented.,NaN,"after each block, you will have the option to take a short break.",NaN,press SPACE to continue,Empty.png,218,1,2023-06-26_11h33.09.946,Online_SceneSrcMD_E,2020.2.10,MacIntel,60,,,,,,,,,,,,,,,,,,,,,,,,,,,,,,,,,,,,,,,,,,,,,,,,,,,,,,,,,,,,,,,,,,,,,,,,,,,,,,,,,,,,
0,5,5,5,1,some of the images will portray scenes with emotional content.,NaN,NaN,if you become uncomfortable please remember that you can leave the experiment at any point without penalty.,NaN,NaN,NaN,press SPACE to continue,Empty.png,218,1,2023-06-26_11h33.09.946,Online_SceneSrcMD_E,2020.2.10,MacIntel,60,,,,,,,,,,,,,,,,,,,,,,,,,,,,,,,,,,,,,,,,,,,,,,,,,,,,,,,,,,,,,,,,,,,,,,,,,,,,,,,,,,,,
0,6,6,6,1,example of an image depicting a scene with emotional content:,NaN,NaN,NaN,NaN,NaN,'P' would be the correct response as blue appears in the scene.,press SPACE to continue,TS08.png,218,1,2023-06-26_11h33.09.946,Online_SceneSrcMD_E,2020.2.10,MacIntel,60,,,,,,,,,,,,,,,,,,,,,,,,,,,,,,,,,,,,,,,,,,,,,,,,,,,,,,,,,,,,,,,,,,,,,,,,,,,,,,,,,,,,
0,7,7,7,1,example of an image depicting a scene with neutral content:,NaN,NaN,NaN,NaN,NaN,'Q' would be the correct response as red does not appear in the scene.,press SPACE to continue,TS06.png,218,1,2023-06-26_11h33.09.946,Online_SceneSrcMD_E,2020.2.10,MacIntel,60,,,,,,,,,,,,,,,,,,,,,,,,,,,,,,,,,,,,,,,,,,,,,,,,,,,,,,,,,,,,,,,,,,,,,,,,,,,,,,,,,,,,
0,8,8,8,1,NaN,NaN,NaN,"after seeing both blocks of images, you will complete a symbol categorization task.",NaN,NaN,NaN,press SPACE to continue,Empty.png,218,1,2023-06-26_11h33.09.946,Online_SceneSrcMD_E,2020.2.10,MacIntel,60,,,,,,,,,,,,,,,,,,,,,,,,,,,,,,,,,,,,,,,,,,,,,,,,,,,,,,,,,,,,,,,,,,,,,,,,,,,,,,,,,,,,
0,9,9,9,1,"during the symbol categorization task, symbols will be presented on the screen one at a time.",NaN,NaN,NaN,NaN,your task is to view each symbol and report its identity.,NaN,press SPACE to continue,Empty.png,218,1,2023-06-26_11h33.09.946,Online_SceneSrcMD_E,2020.2.10,MacIntel,60,,,,,,,,,,,,,,,,,,,,,,,,,,,,,,,,,,,,,,,,,,,,,,,,,,,,,,,,,,,,,,,,,,,,,,,,,,,,,,,,,,,,
0,10,10,10,1,"if you see a number, press 'N'","if you see an alphabetical letter, press 'A'",NaN,each symbol will be presented for three seconds.,NaN,please respond during this time.,NaN,press SPACE to continue,Empty.png,218,1,2023-06-26_11h33.09.946,Online_SceneSrcMD_E,2020.2.10,MacIntel,60,,,,,,,,,,,,,,,,,,,,,,,,,,,,,,,,,,,,,,,,,,,,,,,,,,,,,,,,,,,,,,,,,,,,,,,,,,,,,,,,,,,,
0,11,11,11,1,NaN,NaN,NaN,three blocks will be presented -- there will be no breaks in between the three blocks.,NaN,NaN,NaN,press SPACE to continue,Empty.png,218,1,2023-06-26_11h33.09.946,Online_SceneSrcMD_E,2020.2.10,MacIntel,60,,,,,,,,,,,,,,,,,,,,,,,,,,,,,,,,,,,,,,,,,,,,,,,,,,,,,,,,,,,,,,,,,,,,,,,,,,,,,,,,,,,,
0,12,12,12,1,example of a number:,NaN,NaN,NaN,3,NaN,'N' would be the correct response as the symbol is a number.,press SPACE to continue,Empty.png,218,1,2023-06-26_11h33.09.946,Online_SceneSrcMD_E,2020.2.10,MacIntel,60,,,,,,,,,,,,,,,,,,,,,,,,,,,,,,,,,,,,,,,,,,,,,,,,,,,,,,,,,,,,,,,,,,,,,,,,,,,,,,,,,,,,
0,13,13,13,1,example of a alphabetical letter:,NaN,NaN,NaN,C,NaN,'A' would be the correct response as the symbol is a letter.,press SPACE to continue,Empty.png,218,1,2023-06-26_11h33.09.946,Online_SceneSrcMD_E,2020.2.10,MacIntel,60,,,,,,,,,,,,,,,,,,,,,,,,,,,,,,,,,,,,,,,,,,,,,,,,,,,,,,,,,,,,,,,,,,,,,,,,,,,,,,,,,,,,
0,14,14,14,1,NaN,NaN,NaN,this is the end of the instructions,NaN,NaN,NaN,press SPACE to continue,Empty.png,218,1,2023-06-26_11h33.09.946,Online_SceneSrcMD_E,2020.2.10,MacIntel,60,,,,,,,,,,,,,,,,,,,,,,,,,,,,,,,,,,,,,,,,,,,,,,,,,,,,,,,,,,,,,,,,,,,,,,,,,,,,,,,,,,,,
,,,,,,,,,,,,,,218,1,2023-06-26_11h33.09.946,Online_SceneSrcMD_E,2020.2.10,MacIntel,60,p,2.752,space,5.626,q,0,2.252,0,0,0,0,1,TS01.png,p,,,,,,,,,,,,,,,,,,,,,,,,,,,,,,,,,,,,,,,,,,,,,,,,,,,,,,,,,,,,,,,,,,,,,,
,,,,,,,,,,,,,,218,1,2023-06-26_11h33.09.946,Online_SceneSrcMD_E,2020.2.10,MacIntel,60,,,,,p,1,3.227,0,1,1,1,1,TS02.png,p,,,,,,,,,,,,,,,,,,,,,,,,,,,,,,,,,,,,,,,,,,,,,,,,,,,,,,,,,,,,,,,,,,,,,,
,,,,,,,,,,,,,,218,1,2023-06-26_11h33.09.946,Online_SceneSrcMD_E,2020.2.10,MacIntel,60,,,,,p,1,2.988,0,2,2,2,1,TS05.png,p,,,,,,,,,,,,,,,,,,,,,,,,,,,,,,,,,,,,,,,,,,,,,,,,,,,,,,,,,,,,,,,,,,,,,,
,,,,,,,,,,,,,,218,1,2023-06-26_11h33.09.946,Online_SceneSrcMD_E,2020.2.10,MacIntel,60,,,,,q,1,1.976,0,3,3,3,1,TS06.png,q,,,,,,,,,,,,,,,,,,,,,,,,,,,,,,,,,,,,,,,,,,,,,,,,,,,,,,,,,,,,,,,,,,,,,,
,,,,,,,,,,,,,,218,1,2023-06-26_11h33.09.946,Online_SceneSrcMD_E,2020.2.10,MacIntel,60,,,,,,,,,,,,,,,space,15.701,0,0,0,0,1,,,,,,,,,,,,,,,,,,,,,,,,,,,,,,,,,,,,,,,,,,,,,,,,,,,,,,,,,,,,,,,
,,,,,,,,,,,,,,218,1,2023-06-26_11h33.09.946,Online_SceneSrcMD_E,2020.2.10,MacIntel,60,,,,,,,,,,,,,,,,,,,,,,0,0,0,0,1,PracticeONE.csv,,,,,,,,,,,,,,,,,,,,,,,,,,,,,,,,,,,,,,,,,,,,,,,,,,,,,,,,,
,,,,,,,,,,,,,,218,1,2023-06-26_11h33.09.946,Online_SceneSrcMD_E,2020.2.10,MacIntel,60,,,,,p,1,2.925,0,0,0,0,1,TS03.png,p,,,,,,,,,,,,,,,,,,,,,,,,,,,,,,,,,,,,,,,,,,,,,,,,,,,,,,,,,,,,,,,,,,,,,,
,,,,,,,,,,,,,,218,1,2023-06-26_11h33.09.946,Online_SceneSrcMD_E,2020.2.10,MacIntel,60,,,,,,0,,0,1,1,1,1,TS04.png,p,,,,,,,,,,,,,,,,,,,,,,,,,,,,,,,,,,,,,,,,,,,,,,,,,,,,,,,,,,,,,,,,,,,,,,
,,,,,,,,,,,,,,218,1,2023-06-26_11h33.09.946,Online_SceneSrcMD_E,2020.2.10,MacIntel,60,,,,,p,1,1.57,0,2,2,2,1,TS07.png,p,,,,,,,,,,,,,,,,,,,,,,,,,,,,,,,,,,,,,,,,,,,,,,,,,,,,,,,,,,,,,,,,,,,,,,
,,,,,,,,,,,,,,218,1,2023-06-26_11h33.09.946,Online_SceneSrcMD_E,2020.2.10,MacIntel,60,,,,,p,1,2.256,0,3,3,3,1,TS08.png,p,,,,,,,,,,,,,,,,,,,,,,,,,,,,,,,,,,,,,,,,,,,,,,,,,,,,,,,,,,,,,,,,,,,,,,
,,,,,,,,,,,,,,218,1,2023-06-26_11h33.09.946,Online_SceneSrcMD_E,2020.2.10,MacIntel,60,,,,,,,,,,,,,,,,,,,,,,0,1,1,1,1,PracticeTWO.csv,,,,,,,,,,,,,,,,,,,,,,,,,,,,,,,,,,,,,,,,,,,,,,,,,,,,,,,,,
,,,,,,,,,,,,,,218,1,2023-06-26_11h33.09.946,Online_SceneSrcMD_E,2020.2.10,MacIntel,60,,,,,,,,,,,,,,,,,,,,,,,,,,,,space,6.943,n,1,1.037,0,0,0,0,1,2,n,White,,,,,,,,,,,,,,,,,,,,,,,,,,,,,,,,,,,,,,,,,,,,
,,,,,,,,,,,,,,218,1,2023-06-26_11h33.09.946,Online_SceneSrcMD_E,2020.2.10,MacIntel,60,,,,,,,,,,,,,,,,,,,,,,,,,,,,,,n,1,1.432,0,1,1,1,1,8,n,White,,,,,,,,,,,,,,,,,,,,,,,,,,,,,,,,,,,,,,,,,,,,
,,,,,,,,,,,,,,218,1,2023-06-26_11h33.09.946,Online_SceneSrcMD_E,2020.2.10,MacIntel,60,,,,,,,,,,,,,,,,,,,,,,,,,,,,,,a,1,0.593,0,2,2,2,1,S,a,White,,,,,,,,,,,,,,,,,,,,,,,,,,,,,,,,,,,,,,,,,,,,
,,,,,,,,,,,,,,218,1,2023-06-26_11h33.09.946,Online_SceneSrcMD_E,2020.2.10,MacIntel,60,,,,,,,,,,,,,,,,,,,,,,,,,,,,,,a,1,1.658,0,3,3,3,1,J,a,White,,,,,,,,,,,,,,,,,,,,,,,,,,,,,,,,,,,,,,,,,,,,
,,,,,,,,,,,,,,218,1,2023-06-26_11h33.09.946,Online_SceneSrcMD_E,2020.2.10,MacIntel,60,,,,,,,,,,,,,,,,,,,,,,,,,,,,,,n,1,0.672,0,4,4,4,1,6,n,White,,,,,,,,,,,,,,,,,,,,,,,,,,,,,,,,,,,,,,,,,,,,
,,,,,,,,,,,,,,218,1,2023-06-26_11h33.09.946,Online_SceneSrcMD_E,2020.2.10,MacIntel,60,,,,,,,,,,,,,,,,,,,,,,,,,,,,,,,,,,,,,,,,,0,0,0,0,1,Practice_ZeroBlock.csv,Practice Block 1,,,,,,,,,,,,,,,,,,,,,,,,,,,,,,,,,,,,,
,,,,,,,,,,,,,,218,1,2023-06-26_11h33.09.946,Online_SceneSrcMD_E,2020.2.10,MacIntel,60,,,,,,,,,,,,,,,,,,,,,,,,,,,,,,a,1,0.975,0,0,0,0,1,F,a,White,,,,,,,,,,,,,,,,,,,,,,,,,,,,,,,,,,,,,,,,,,,,
,,,,,,,,,,,,,,218,1,2023-06-26_11h33.09.946,Online_SceneSrcMD_E,2020.2.10,MacIntel,60,,,,,,,,,,,,,,,,,,,,,,,,,,,,,,a,1,0.656,0,1,1,1,1,H,a,White,,,,,,,,,,,,,,,,,,,,,,,,,,,,,,,,,,,,,,,,,,,,
,,,,,,,,,,,,,,218,1,2023-06-26_11h33.09.946,Online_SceneSrcMD_E,2020.2.10,MacIntel,60,,,,,,,,,,,,,,,,,,,,,,,,,,,,,,a,1,0.805,0,2,2,2,1,X,a,White,,,,,,,,,,,,,,,,,,,,,,,,,,,,,,,,,,,,,,,,,,,,
,,,,,,,,,,,,,,218,1,2023-06-26_11h33.09.946,Online_SceneSrcMD_E,2020.2.10,MacIntel,60,,,,,,,,,,,,,,,,,,,,,,,,,,,,,,n,1,0.978,0,3,3,3,1,5,n,White,,,,,,,,,,,,,,,,,,,,,,,,,,,,,,,,,,,,,,,,,,,,
,,,,,,,,,,,,,,218,1,2023-06-26_11h33.09.946,Online_SceneSrcMD_E,2020.2.10,MacIntel,60,,,,,,,,,,,,,,,,,,,,,,,,,,,,,,n,1,1.877,0,4,4,4,1,1,n,White,,,,,,,,,,,,,,,,,,,,,,,,,,,,,,,,,,,,,,,,,,,,
,,,,,,,,,,,,,,218,1,2023-06-26_11h33.09.946,Online_SceneSrcMD_E,2020.2.10,MacIntel,60,,,,,,,,,,,,,,,,,,,,,,,,,,,,,,,,,,,,,,,,,0,1,1,1,1,Practice_OneBlock.csv,Practice Block 2,,,,,,,,,,,,,,,,,,,,,,,,,,,,,,,,,,,,,
,,,,,,,,,,,,,,218,1,2023-06-26_11h33.09.946,Online_SceneSrcMD_E,2020.2.10,MacIntel,60,,,,,,,,,,,,,,,,,,,,,,,,,,,,,,n,1,1.361,0,0,0,0,1,2,n,White,,,,,,,,,,,,,,,,,,,,,,,,,,,,,,,,,,,,,,,,,,,,
,,,,,,,,,,,,,,218,1,2023-06-26_11h33.09.946,Online_SceneSrcMD_E,2020.2.10,MacIntel,60,,,,,,,,,,,,,,,,,,,,,,,,,,,,,,a,1,0.76,0,1,1,1,1,V,a,White,,,,,,,,,,,,,,,,,,,,,,,,,,,,,,,,,,,,,,,,,,,,
,,,,,,,,,,,,,,218,1,2023-06-26_11h33.09.946,Online_SceneSrcMD_E,2020.2.10,MacIntel,60,,,,,,,,,,,,,,,,,,,,,,,,,,,,,,n,1,1.362,0,2,2,2,1,5,n,White,,,,,,,,,,,,,,,,,,,,,,,,,,,,,,,,,,,,,,,,,,,,
,,,,,,,,,,,,,,218,1,2023-06-26_11h33.09.946,Online_SceneSrcMD_E,2020.2.10,MacIntel,60,,,,,,,,,,,,,,,,,,,,,,,,,,,,,,n,1,1.49,0,3,3,3,1,2,n,White,,,,,,,,,,,,,,,,,,,,,,,,,,,,,,,,,,,,,,,,,,,,
,,,,,,,,,,,,,,218,1,2023-06-26_11h33.09.946,Online_SceneSrcMD_E,2020.2.10,MacIntel,60,,,,,,,,,,,,,,,,,,,,,,,,,,,,,,a,1,1.124,0,4,4,4,1,F,a,White,,,,,,,,,,,,,,,,,,,,,,,,,,,,,,,,,,,,,,,,,,,,
,,,,,,,,,,,,,,218,1,2023-06-26_11h33.09.946,Online_SceneSrcMD_E,2020.2.10,MacIntel,60,,,,,,,,,,,,,,,,,,,,,,,,,,,,,,,,,,,,,,,,,0,2,2,2,1,Practice_TwoBlock.csv,Practice Block 3,,,,,,,,,,,,,,,,,,,,,,,,,,,,,,,,,,,,,
,,,,,,,,,,,,,,218,1,2023-06-26_11h33.09.946,Online_SceneSrcMD_E,2020.2.10,MacIntel,60,,,space,5.352,p,1,1.642,,,,,,N2-9913comp.png,p,,,,,,,,,,,,,,,,,,,,,,,,,,,,,,,,,,0,0,0,0,1,,,,,,,,,,,,,,,,,,,,,,,,,,,,,,,,
,,,,,,,,,,,,,,218,1,2023-06-26_11h33.09.946,Online_SceneSrcMD_E,2020.2.10,MacIntel,60,,,,,q,1,1.819,,,,,,E2-9921comp.png,q,,,,,,,,,,,,,,,,,,,,,,,,,,,,,,,,,,0,1,1,1,1,,,,,,,,,,,,,,,,,,,,,,,,,,,,,,,,
,,,,,,,,,,,,,,218,1,2023-06-26_11h33.09.946,Online_SceneSrcMD_E,2020.2.10,MacIntel,60,,,,,p,1,3.613,,,,,,N2-8160comp.png,p,,,,,,,,,,,,,,,,,,,,,,,,,,,,,,,,,,0,2,2,2,1,,,,,,,,,,,,,,,,,,,,,,,,,,,,,,,,
,,,,,,,,,,,,,,218,1,2023-06-26_11h33.09.946,Online_SceneSrcMD_E,2020.2.10,MacIntel,60,,,,,q,0,3.556,,,,,,E2-6415comp.png,p,,,,,,,,,,,,,,,,,,,,,,,,,,,,,,,,,,0,3,3,3,1,,,,,,,,,,,,,,,,,,,,,,,,,,,,,,,,
,,,,,,,,,,,,,,218,1,2023-06-26_11h33.09.946,Online_SceneSrcMD_E,2020.2.10,MacIntel,60,,,,,p,1,3.155,,,,,,N2-5395comp.png,p,,,,,,,,,,,,,,,,,,,,,,,,,,,,,,,,,,0,4,4,4,1,,,,,,,,,,,,,,,,,,,,,,,,,,,,,,,,
,,,,,,,,,,,,,,218,1,2023-06-26_11h33.09.946,Online_SceneSrcMD_E,2020.2.10,MacIntel,60,,,,,p,1,1.973,,,,,,E2-3350comp.png,p,,,,,,,,,,,,,,,,,,,,,,,,,,,,,,,,,,0,5,5,5,1,,,,,,,,,,,,,,,,,,,,,,,,,,,,,,,,
,,,,,,,,,,,,,,218,1,2023-06-26_11h33.09.946,Online_SceneSrcMD_E,2020.2.10,MacIntel,60,,,,,q,1,2.066,,,,,,N2-1600comp.png,q,,,,,,,,,,,,,,,,,,,,,,,,,,,,,,,,,,0,6,6,6,1,,,,,,,,,,,,,,,,,,,,,,,,,,,,,,,,
,,,,,,,,,,,,,,218,1,2023-06-26_11h33.09.946,Online_SceneSrcMD_E,2020.2.10,MacIntel,60,,,,,q,1,2.907,,,,,,N2-7550comp.png,q,,,,,,,,,,,,,,,,,,,,,,,,,,,,,,,,,,0,7,7,7,1,,,,,,,,,,,,,,,,,,,,,,,,,,,,,,,,
,,,,,,,,,,,,,,218,1,2023-06-26_11h33.09.946,Online_SceneSrcMD_E,2020.2.10,MacIntel,60,,,,,q,1,2.852,,,,,,E2-6243comp.png,q,,,,,,,,,,,,,,,,,,,,,,,,,,,,,,,,,,0,8,8,8,1,,,,,,,,,,,,,,,,,,,,,,,,,,,,,,,,
,,,,,,,,,,,,,,218,1,2023-06-26_11h33.09.946,Online_SceneSrcMD_E,2020.2.10,MacIntel,60,,,,,p,1,1.601,,,,,,N2-2840comp.png,p,,,,,,,,,,,,,,,,,,,,,,,,,,,,,,,,,,0,9,9,9,1,,,,,,,,,,,,,,,,,,,,,,,,,,,,,,,,
,,,,,,,,,,,,,,218,1,2023-06-26_11h33.09.946,Online_SceneSrcMD_E,2020.2.10,MacIntel,60,,,,,p,1,2.42,,,,,,E2-2716comp.png,p,,,,,,,,,,,,,,,,,,,,,,,,,,,,,,,,,,0,10,10,10,1,,,,,,,,,,,,,,,,,,,,,,,,,,,,,,,,
,,,,,,,,,,,,,,218,1,2023-06-26_11h33.09.946,Online_SceneSrcMD_E,2020.2.10,MacIntel,60,,,,,q,1,2.693,,,,,,N2-6570_2comp.png,q,,,,,,,,,,,,,,,,,,,,,,,,,,,,,,,,,,0,11,11,11,1,,,,,,,,,,,,,,,,,,,,,,,,,,,,,,,,
,,,,,,,,,,,,,,218,1,2023-06-26_11h33.09.946,Online_SceneSrcMD_E,2020.2.10,MacIntel,60,,,,,p,0,3.813,,,,,,E2-2900_1comp.png,q,,,,,,,,,,,,,,,,,,,,,,,,,,,,,,,,,,0,12,12,12,1,,,,,,,,,,,,,,,,,,,,,,,,,,,,,,,,
,,,,,,,,,,,,,,218,1,2023-06-26_11h33.09.946,Online_SceneSrcMD_E,2020.2.10,MacIntel,60,,,,,p,0,3.443,,,,,,N2-2594comp.png,q,,,,,,,,,,,,,,,,,,,,,,,,,,,,,,,,,,0,13,13,13,1,,,,,,,,,,,,,,,,,,,,,,,,,,,,,,,,
,,,,,,,,,,,,,,218,1,2023-06-26_11h33.09.946,Online_SceneSrcMD_E,2020.2.10,MacIntel,60,,,,,p,1,2.588,,,,,,E2-9420comp.png,p,,,,,,,,,,,,,,,,,,,,,,,,,,,,,,,,,,0,14,14,14,1,,,,,,,,,,,,,,,,,,,,,,,,,,,,,,,,
,,,,,,,,,,,,,,218,1,2023-06-26_11h33.09.946,Online_SceneSrcMD_E,2020.2.10,MacIntel,60,,,,,p,1,1.828,,,,,,N2-5779comp.png,p,,,,,,,,,,,,,,,,,,,,,,,,,,,,,,,,,,0,15,15,15,1,,,,,,,,,,,,,,,,,,,,,,,,,,,,,,,,
,,,,,,,,,,,,,,218,1,2023-06-26_11h33.09.946,Online_SceneSrcMD_E,2020.2.10,MacIntel,60,,,,,p,1,1.755,,,,,,E2-1932comp.png,p,,,,,,,,,,,,,,,,,,,,,,,,,,,,,,,,,,0,16,16,16,1,,,,,,,,,,,,,,,,,,,,,,,,,,,,,,,,
,,,,,,,,,,,,,,218,1,2023-06-26_11h33.09.946,Online_SceneSrcMD_E,2020.2.10,MacIntel,60,,,,,p,0,2.013,,,,,,E2-9582comp.png,q,,,,,,,,,,,,,,,,,,,,,,,,,,,,,,,,,,0,17,17,17,1,,,,,,,,,,,,,,,,,,,,,,,,,,,,,,,,
,,,,,,,,,,,,,,218,1,2023-06-26_11h33.09.946,Online_SceneSrcMD_E,2020.2.10,MacIntel,60,,,,,q,1,3.829,,,,,,N2-2620comp.png,q,,,,,,,,,,,,,,,,,,,,,,,,,,,,,,,,,,0,18,18,18,1,,,,,,,,,,,,,,,,,,,,,,,,,,,,,,,,
,,,,,,,,,,,,,,218,1,2023-06-26_11h33.09.946,Online_SceneSrcMD_E,2020.2.10,MacIntel,60,,,,,q,1,2.141,,,,,,E2-7380comp.png,q,,,,,,,,,,,,,,,,,,,,,,,,,,,,,,,,,,0,19,19,19,1,,,,,,,,,,,,,,,,,,,,,,,,,,,,,,,,
,,,,,,,,,,,,,,218,1,2023-06-26_11h33.09.946,Online_SceneSrcMD_E,2020.2.10,MacIntel,60,,,,,,,,,,,,,,,,,,,,,,,,,,,,,,,,,,,,,,,,,,,,,,,,,,,,,"[""1"",""3"",""4"",""5""]","[10.480000000000018,11.807000000000016,12.645999999999958,13.313999999999965]",space,9.839,0,0,0,0,1,Attn_Colored.png,,,,,,,,,,,,,,,,,,,,,,
,,,,,,,,,,,,,,218,1,2023-06-26_11h33.09.946,Online_SceneSrcMD_E,2020.2.10,MacIntel,60,,,,,,,,,,,,,,,,,,,,,,,,,,,,,,,,,,,,,,,,,,,,,,,,,,,,,,,,,,,,,,,0,0,0,0,1,BlockFour.csv,ColorCheck.csv,,,,,,,,,,,,,,,
,,,,,,,,,,,,,,218,1,2023-06-26_11h33.09.946,Online_SceneSrcMD_E,2020.2.10,MacIntel,60,,,,,p,1,2.116,,,,,,N2-1661comp.png,p,,,,,,,,,,,,,,,,,,,,,,,,,,,,,,,,,,0,0,0,0,1,,,,,,,,,,,,,,,,,,,,,,,,,,,,,,,,
,,,,,,,,,,,,,,218,1,2023-06-26_11h33.09.946,Online_SceneSrcMD_E,2020.2.10,MacIntel,60,,,,,p,1,2.252,,,,,,E2-9340comp.png,p,,,,,,,,,,,,,,,,,,,,,,,,,,,,,,,,,,0,1,1,1,1,,,,,,,,,,,,,,,,,,,,,,,,,,,,,,,,
,,,,,,,,,,,,,,218,1,2023-06-26_11h33.09.946,Online_SceneSrcMD_E,2020.2.10,MacIntel,60,,,,,p,1,3.537,,,,,,N2-2512comp.png,p,,,,,,,,,,,,,,,,,,,,,,,,,,,,,,,,,,0,2,2,2,1,,,,,,,,,,,,,,,,,,,,,,,,,,,,,,,,
,,,,,,,,,,,,,,218,1,2023-06-26_11h33.09.946,Online_SceneSrcMD_E,2020.2.10,MacIntel,60,,,,,q,1,1.509,,,,,,E2-3261comp.png,q,,,,,,,,,,,,,,,,,,,,,,,,,,,,,,,,,,0,3,3,3,1,,,,,,,,,,,,,,,,,,,,,,,,,,,,,,,,
,,,,,,,,,,,,,,218,1,2023-06-26_11h33.09.946,Online_SceneSrcMD_E,2020.2.10,MacIntel,60,,,,,q,1,2.619,,,,,,N2-2270comp.png,q,,,,,,,,,,,,,,,,,,,,,,,,,,,,,,,,,,0,4,4,4,1,,,,,,,,,,,,,,,,,,,,,,,,,,,,,,,,
,,,,,,,,,,,,,,218,1,2023-06-26_11h33.09.946,Online_SceneSrcMD_E,2020.2.10,MacIntel,60,,,,,p,1,2.853,,,,,,E2-9040comp.png,p,,,,,,,,,,,,,,,,,,,,,,,,,,,,,,,,,,0,5,5,5,1,,,,,,,,,,,,,,,,,,,,,,,,,,,,,,,,
,,,,,,,,,,,,,,218,1,2023-06-26_11h33.09.946,Online_SceneSrcMD_E,2020.2.10,MacIntel,60,,,,,p,1,1.119,,,,,,N2-4603comp.png,p,,,,,,,,,,,,,,,,,,,,,,,,,,,,,,,,,,0,6,6,6,1,,,,,,,,,,,,,,,,,,,,,,,,,,,,,,,,
,,,,,,,,,,,,,,218,1,2023-06-26_11h33.09.946,Online_SceneSrcMD_E,2020.2.10,MacIntel,60,,,,,q,1,2.217,,,,,,E2-9140comp.png,q,,,,,,,,,,,,,,,,,,,,,,,,,,,,,,,,,,0,7,7,7,1,,,,,,,,,,,,,,,,,,,,,,,,,,,,,,,,
,,,,,,,,,,,,,,218,1,2023-06-26_11h33.09.946,Online_SceneSrcMD_E,2020.2.10,MacIntel,60,,,,,p,1,2.503,,,,,,E2-9410comp.png,p,,,,,,,,,,,,,,,,,,,,,,,,,,,,,,,,,,0,8,8,8,1,,,,,,,,,,,,,,,,,,,,,,,,,,,,,,,,
,,,,,,,,,,,,,,218,1,2023-06-26_11h33.09.946,Online_SceneSrcMD_E,2020.2.10,MacIntel,60,,,,,q,1,3.288,,,,,,N2-5875comp.png,q,,,,,,,,,,,,,,,,,,,,,,,,,,,,,,,,,,0,9,9,9,1,,,,,,,,,,,,,,,,,,,,,,,,,,,,,,,,
,,,,,,,,,,,,,,218,1,2023-06-26_11h33.09.946,Online_SceneSrcMD_E,2020.2.10,MacIntel,60,,,,,q,1,1.385,,,,,,N2-8465comp.png,q,,,,,,,,,,,,,,,,,,,,,,,,,,,,,,,,,,0,10,10,10,1,,,,,,,,,,,,,,,,,,,,,,,,,,,,,,,,
,,,,,,,,,,,,,,218,1,2023-06-26_11h33.09.946,Online_SceneSrcMD_E,2020.2.10,MacIntel,60,,,,,p,1,2.852,,,,,,E2-9424comp.png,p,,,,,,,,,,,,,,,,,,,,,,,,,,,,,,,,,,0,11,11,11,1,,,,,,,,,,,,,,,,,,,,,,,,,,,,,,,,
,,,,,,,,,,,,,,218,1,2023-06-26_11h33.09.946,Online_SceneSrcMD_E,2020.2.10,MacIntel,60,,,,,p,1,2.044,,,,,,N2-1910comp.png,p,,,,,,,,,,,,,,,,,,,,,,,,,,,,,,,,,,0,12,12,12,1,,,,,,,,,,,,,,,,,,,,,,,,,,,,,,,,
,,,,,,,,,,,,,,218,1,2023-06-26_11h33.09.946,Online_SceneSrcMD_E,2020.2.10,MacIntel,60,,,,,q,1,2.061,,,,,,E2-9500comp.png,q,,,,,,,,,,,,,,,,,,,,,,,,,,,,,,,,,,0,13,13,13,1,,,,,,,,,,,,,,,,,,,,,,,,,,,,,,,,
,,,,,,,,,,,,,,218,1,2023-06-26_11h33.09.946,Online_SceneSrcMD_E,2020.2.10,MacIntel,60,,,,,q,1,2.454,,,,,,E2-6540comp.png,q,,,,,,,,,,,,,,,,,,,,,,,,,,,,,,,,,,0,14,14,14,1,,,,,,,,,,,,,,,,,,,,,,,,,,,,,,,,
,,,,,,,,,,,,,,218,1,2023-06-26_11h33.09.946,Online_SceneSrcMD_E,2020.2.10,MacIntel,60,,,,,q,1,2.191,,,,,,N2-2616comp.png,q,,,,,,,,,,,,,,,,,,,,,,,,,,,,,,,,,,0,15,15,15,1,,,,,,,,,,,,,,,,,,,,,,,,,,,,,,,,
,,,,,,,,,,,,,,218,1,2023-06-26_11h33.09.946,Online_SceneSrcMD_E,2020.2.10,MacIntel,60,,,,,q,1,1.959,,,,,,N2-2221comp.png,q,,,,,,,,,,,,,,,,,,,,,,,,,,,,,,,,,,0,16,16,16,1,,,,,,,,,,,,,,,,,,,,,,,,,,,,,,,,
,,,,,,,,,,,,,,218,1,2023-06-26_11h33.09.946,Online_SceneSrcMD_E,2020.2.10,MacIntel,60,,,,,q,1,1.373,,,,,,E2-8230comp.png,q,,,,,,,,,,,,,,,,,,,,,,,,,,,,,,,,,,0,17,17,17,1,,,,,,,,,,,,,,,,,,,,,,,,,,,,,,,,
,,,,,,,,,,,,,,218,1,2023-06-26_11h33.09.946,Online_SceneSrcMD_E,2020.2.10,MacIntel,60,,,,,p,0,3.06,,,,,,N2-2499comp.png,q,,,,,,,,,,,,,,,,,,,,,,,,,,,,,,,,,,0,18,18,18,1,,,,,,,,,,,,,,,,,,,,,,,,,,,,,,,,
,,,,,,,,,,,,,,218,1,2023-06-26_11h33.09.946,Online_SceneSrcMD_E,2020.2.10,MacIntel,60,,,,,p,0,2.677,,,,,,E2-9622comp.png,q,,,,,,,,,,,,,,,,,,,,,,,,,,,,,,,,,,0,19,19,19,1,,,,,,,,,,,,,,,,,,,,,,,,,,,,,,,,
,,,,,,,,,,,,,,218,1,2023-06-26_11h33.09.946,Online_SceneSrcMD_E,2020.2.10,MacIntel,60,,,,,,,,,,,,,,,,,,,,,,,,,,,,,,,,,,,,,,,,,,,,,,,,,,,,,,,space,8.258,,,,,,,,,,,,,,0,0,0,0,1,,,,,,,,,,
,,,,,,,,,,,,,,218,1,2023-06-26_11h33.09.946,Online_SceneSrcMD_E,2020.2.10,MacIntel,60,,,,,,,,,,,,,,,,,,,,,,,,,,,,,,,,,,,,,,,,,,,,,,,,,,,,,,,,,,,,,,,0,1,1,1,1,BlockFive.csv,ColorCheck.csv,,,,,,,,,,,,,,,
,,,,,,,,,,,,,,218,1,2023-06-26_11h33.09.946,Online_SceneSrcMD_E,2020.2.10,MacIntel,60,,,,,p,1,2.067,,,,,,E2-9230comp.png,p,,,,,,,,,,,,,,,,,,,,,,,,,,,,,,,,,,0,0,0,0,1,,,,,,,,,,,,,,,,,,,,,,,,,,,,,,,,
,,,,,,,,,,,,,,218,1,2023-06-26_11h33.09.946,Online_SceneSrcMD_E,2020.2.10,MacIntel,60,,,,,p,1,1.473,,,,,,N2-2235comp.png,p,,,,,,,,,,,,,,,,,,,,,,,,,,,,,,,,,,0,1,1,1,1,,,,,,,,,,,,,,,,,,,,,,,,,,,,,,,,
,,,,,,,,,,,,,,218,1,2023-06-26_11h33.09.946,Online_SceneSrcMD_E,2020.2.10,MacIntel,60,,,,,p,1,3.242,,,,,,N2-8280comp.png,p,,,,,,,,,,,,,,,,,,,,,,,,,,,,,,,,,,0,2,2,2,1,,,,,,,,,,,,,,,,,,,,,,,,,,,,,,,,
,,,,,,,,,,,,,,218,1,2023-06-26_11h33.09.946,Online_SceneSrcMD_E,2020.2.10,MacIntel,60,,,,,p,1,2.554,,,,,,E2-3266comp.png,p,,,,,,,,,,,,,,,,,,,,,,,,,,,,,,,,,,0,3,3,3,1,,,,,,,,,,,,,,,,,,,,,,,,,,,,,,,,
,,,,,,,,,,,,,,218,1,2023-06-26_11h33.09.946,Online_SceneSrcMD_E,2020.2.10,MacIntel,60,,,,,p,1,3.379,,,,,,N2-7560comp.png,p,,,,,,,,,,,,,,,,,,,,,,,,,,,,,,,,,,0,4,4,4,1,,,,,,,,,,,,,,,,,,,,,,,,,,,,,,,,
,,,,,,,,,,,,,,218,1,2023-06-26_11h33.09.946,Online_SceneSrcMD_E,2020.2.10,MacIntel,60,,,,,p,1,1.817,,,,,,E2-9920comp.png,p,,,,,,,,,,,,,,,,,,,,,,,,,,,,,,,,,,0,5,5,5,1,,,,,,,,,,,,,,,,,,,,,,,,,,,,,,,,
,,,,,,,,,,,,,,218,1,2023-06-26_11h33.09.946,Online_SceneSrcMD_E,2020.2.10,MacIntel,60,,,,,p,1,3.302,,,,,,N2-2579comp.png,p,,,,,,,,,,,,,,,,,,,,,,,,,,,,,,,,,,0,6,6,6,1,,,,,,,,,,,,,,,,,,,,,,,,,,,,,,,,
,,,,,,,,,,,,,,218,1,2023-06-26_11h33.09.946,Online_SceneSrcMD_E,2020.2.10,MacIntel,60,,,,,p,1,1.225,,,,,,N2-7491comp.png,p,,,,,,,,,,,,,,,,,,,,,,,,,,,,,,,,,,0,7,7,7,1,,,,,,,,,,,,,,,,,,,,,,,,,,,,,,,,
,,,,,,,,,,,,,,218,1,2023-06-26_11h33.09.946,Online_SceneSrcMD_E,2020.2.10,MacIntel,60,,,,,,0,,,,,,,E2-3230comp.png,q,,,,,,,,,,,,,,,,,,,,,,,,,,,,,,,,,,0,8,8,8,1,,,,,,,,,,,,,,,,,,,,,,,,,,,,,,,,
,,,,,,,,,,,,,,218,1,2023-06-26_11h33.09.946,Online_SceneSrcMD_E,2020.2.10,MacIntel,60,,,,,p,1,2.27,,,,,,E2-2683comp.png,p,,,,,,,,,,,,,,,,,,,,,,,,,,,,,,,,,,0,9,9,9,1,,,,,,,,,,,,,,,,,,,,,,,,,,,,,,,,
,,,,,,,,,,,,,,218,1,2023-06-26_11h33.09.946,Online_SceneSrcMD_E,2020.2.10,MacIntel,60,,,,,p,1,1.785,,,,,,N2-7600comp.png,p,,,,,,,,,,,,,,,,,,,,,,,,,,,,,,,,,,0,10,10,10,1,,,,,,,,,,,,,,,,,,,,,,,,,,,,,,,,
,,,,,,,,,,,,,,218,1,2023-06-26_11h33.09.946,Online_SceneSrcMD_E,2020.2.10,MacIntel,60,,,,,q,1,2.902,,,,,,E2-3400comp.png,q,,,,,,,,,,,,,,,,,,,,,,,,,,,,,,,,,,0,11,11,11,1,,,,,,,,,,,,,,,,,,,,,,,,,,,,,,,,
,,,,,,,,,,,,,,218,1,2023-06-26_11h33.09.946,Online_SceneSrcMD_E,2020.2.10,MacIntel,60,,,,,q,0,2.923,,,,,,E2-9265comp.png,p,,,,,,,,,,,,,,,,,,,,,,,,,,,,,,,,,,0,12,12,12,1,,,,,,,,,,,,,,,,,,,,,,,,,,,,,,,,
,,,,,,,,,,,,,,218,1,2023-06-26_11h33.09.946,Online_SceneSrcMD_E,2020.2.10,MacIntel,60,,,,,p,1,2.102,,,,,,N2-2518comp.png,p,,,,,,,,,,,,,,,,,,,,,,,,,,,,,,,,,,0,13,13,13,1,,,,,,,,,,,,,,,,,,,,,,,,,,,,,,,,
,,,,,,,,,,,,,,218,1,2023-06-26_11h33.09.946,Online_SceneSrcMD_E,2020.2.10,MacIntel,60,,,,,q,1,1.803,,,,,,E2-3069comp.png,q,,,,,,,,,,,,,,,,,,,,,,,,,,,,,,,,,,0,14,14,14,1,,,,,,,,,,,,,,,,,,,,,,,,,,,,,,,,
,,,,,,,,,,,,,,218,1,2023-06-26_11h33.09.946,Online_SceneSrcMD_E,2020.2.10,MacIntel,60,,,,,p,1,2.218,,,,,,N2-2200comp.png,p,,,,,,,,,,,,,,,,,,,,,,,,,,,,,,,,,,0,15,15,15,1,,,,,,,,,,,,,,,,,,,,,,,,,,,,,,,,
,,,,,,,,,,,,,,218,1,2023-06-26_11h33.09.946,Online_SceneSrcMD_E,2020.2.10,MacIntel,60,,,,,p,1,2.425,,,,,,N2-7546comp.png,p,,,,,,,,,,,,,,,,,,,,,,,,,,,,,,,,,,0,16,16,16,1,,,,,,,,,,,,,,,,,,,,,,,,,,,,,,,,
,,,,,,,,,,,,,,218,1,2023-06-26_11h33.09.946,Online_SceneSrcMD_E,2020.2.10,MacIntel,60,,,,,q,1,2.82,,,,,,E2-3500comp.png,q,,,,,,,,,,,,,,,,,,,,,,,,,,,,,,,,,,0,17,17,17,1,,,,,,,,,,,,,,,,,,,,,,,,,,,,,,,,
,,,,,,,,,,,,,,218,1,2023-06-26_11h33.09.946,Online_SceneSrcMD_E,2020.2.10,MacIntel,60,,,,,q,1,2.353,,,,,,E2-3170comp.png,q,,,,,,,,,,,,,,,,,,,,,,,,,,,,,,,,,,0,18,18,18,1,,,,,,,,,,,,,,,,,,,,,,,,,,,,,,,,
,,,,,,,,,,,,,,218,1,2023-06-26_11h33.09.946,Online_SceneSrcMD_E,2020.2.10,MacIntel,60,,,,,p,1,2.179,,,,,,N2-2606comp.png,p,,,,,,,,,,,,,,,,,,,,,,,,,,,,,,,,,,0,19,19,19,1,,,,,,,,,,,,,,,,,,,,,,,,,,,,,,,,
,,,,,,,,,,,,,,218,1,2023-06-26_11h33.09.946,Online_SceneSrcMD_E,2020.2.10,MacIntel,60,,,,,,,,,,,,,,,,,,,,,,,,,,,,,,,,,,,,,,,,,,,,,,,,,,,,,,,space,14.958,,,,,,,,,,,,,,0,0,0,0,1,,,,,,,,,,
,,,,,,,,,,,,,,218,1,2023-06-26_11h33.09.946,Online_SceneSrcMD_E,2020.2.10,MacIntel,60,,,,,,,,,,,,,,,,,,,,,,,,,,,,,,,,,,,,,,,,,,,,,,,,,,,,,,,,,,,,,,,0,2,2,2,1,BlockSix.csv,ColorCheck.csv,,,,,,,,,,,,,,,
,,,,,,,,,,,,,,218,1,2023-06-26_11h33.09.946,Online_SceneSrcMD_E,2020.2.10,MacIntel,60,,,,,,,,,,,,,,,,,,,,,,,,,,,,space,6.922,a,1,0.706,,,,,,E,a,White,,,,,,,,,,,,,,,,,,,,,,,,,,,,,,,,,,,0,0,0,0,1,,,,,
,,,,,,,,,,,,,,218,1,2023-06-26_11h33.09.946,Online_SceneSrcMD_E,2020.2.10,MacIntel,60,,,,,,,,,,,,,,,,,,,,,,,,,,,,,,n,1,0.844,,,,,,1,n,White,,,,,,,,,,,,,,,,,,,,,,,,,,,,,,,,,,,0,1,1,1,1,,,,,
,,,,,,,,,,,,,,218,1,2023-06-26_11h33.09.946,Online_SceneSrcMD_E,2020.2.10,MacIntel,60,,,,,,,,,,,,,,,,,,,,,,,,,,,,,,n,1,0.741,,,,,,6,n,White,,,,,,,,,,,,,,,,,,,,,,,,,,,,,,,,,,,0,2,2,2,1,,,,,
,,,,,,,,,,,,,,218,1,2023-06-26_11h33.09.946,Online_SceneSrcMD_E,2020.2.10,MacIntel,60,,,,,,,,,,,,,,,,,,,,,,,,,,,,,,a,1,1.749,,,,,,O,a,White,,,,,,,,,,,,,,,,,,,,,,,,,,,,,,,,,,,0,3,3,3,1,,,,,
,,,,,,,,,,,,,,218,1,2023-06-26_11h33.09.946,Online_SceneSrcMD_E,2020.2.10,MacIntel,60,,,,,,,,,,,,,,,,,,,,,,,,,,,,,,n,1,0.64,,,,,,5,n,White,,,,,,,,,,,,,,,,,,,,,,,,,,,,,,,,,,,0,4,4,4,1,,,,,
,,,,,,,,,,,,,,218,1,2023-06-26_11h33.09.946,Online_SceneSrcMD_E,2020.2.10,MacIntel,60,,,,,,,,,,,,,,,,,,,,,,,,,,,,,,n,1,0.661,,,,,,7,n,White,,,,,,,,,,,,,,,,,,,,,,,,,,,,,,,,,,,0,5,5,5,1,,,,,
,,,,,,,,,,,,,,218,1,2023-06-26_11h33.09.946,Online_SceneSrcMD_E,2020.2.10,MacIntel,60,,,,,,,,,,,,,,,,,,,,,,,,,,,,,,n,1,2.265,,,,,,8,n,White,,,,,,,,,,,,,,,,,,,,,,,,,,,,,,,,,,,0,6,6,6,1,,,,,
,,,,,,,,,,,,,,218,1,2023-06-26_11h33.09.946,Online_SceneSrcMD_E,2020.2.10,MacIntel,60,,,,,,,,,,,,,,,,,,,,,,,,,,,,,,n,1,0.64,,,,,,6,n,White,,,,,,,,,,,,,,,,,,,,,,,,,,,,,,,,,,,0,7,7,7,1,,,,,
,,,,,,,,,,,,,,218,1,2023-06-26_11h33.09.946,Online_SceneSrcMD_E,2020.2.10,MacIntel,60,,,,,,,,,,,,,,,,,,,,,,,,,,,,,,a,1,0.849,,,,,,Z,a,White,,,,,,,,,,,,,,,,,,,,,,,,,,,,,,,,,,,0,8,8,8,1,,,,,
,,,,,,,,,,,,,,218,1,2023-06-26_11h33.09.946,Online_SceneSrcMD_E,2020.2.10,MacIntel,60,,,,,,,,,,,,,,,,,,,,,,,,,,,,,,a,1,0.966,,,,,,B,a,White,,,,,,,,,,,,,,,,,,,,,,,,,,,,,,,,,,,0,9,9,9,1,,,,,
,,,,,,,,,,,,,,218,1,2023-06-26_11h33.09.946,Online_SceneSrcMD_E,2020.2.10,MacIntel,60,,,,,,,,,,,,,,,,,,,,,,,,,,,,,,n,1,0.722,,,,,,5,n,White,,,,,,,,,,,,,,,,,,,,,,,,,,,,,,,,,,,0,10,10,10,1,,,,,
,,,,,,,,,,,,,,218,1,2023-06-26_11h33.09.946,Online_SceneSrcMD_E,2020.2.10,MacIntel,60,,,,,,,,,,,,,,,,,,,,,,,,,,,,,,a,1,1.428,,,,,,G,a,White,,,,,,,,,,,,,,,,,,,,,,,,,,,,,,,,,,,0,11,11,11,1,,,,,
,,,,,,,,,,,,,,218,1,2023-06-26_11h33.09.946,Online_SceneSrcMD_E,2020.2.10,MacIntel,60,,,,,,,,,,,,,,,,,,,,,,,,,,,,,,n,1,0.922,,,,,,5,n,White,,,,,,,,,,,,,,,,,,,,,,,,,,,,,,,,,,,0,12,12,12,1,,,,,
,,,,,,,,,,,,,,218,1,2023-06-26_11h33.09.946,Online_SceneSrcMD_E,2020.2.10,MacIntel,60,,,,,,,,,,,,,,,,,,,,,,,,,,,,,,a,1,0.989,,,,,,D,a,White,,,,,,,,,,,,,,,,,,,,,,,,,,,,,,,,,,,0,13,13,13,1,,,,,
,,,,,,,,,,,,,,218,1,2023-06-26_11h33.09.946,Online_SceneSrcMD_E,2020.2.10,MacIntel,60,,,,,,,,,,,,,,,,,,,,,,,,,,,,,,a,1,1.175,,,,,,P,a,White,,,,,,,,,,,,,,,,,,,,,,,,,,,,,,,,,,,0,14,14,14,1,,,,,
,,,,,,,,,,,,,,218,1,2023-06-26_11h33.09.946,Online_SceneSrcMD_E,2020.2.10,MacIntel,60,,,,,,,,,,,,,,,,,,,,,,,,,,,,,,n,1,0.726,,,,,,2,n,White,,,,,,,,,,,,,,,,,,,,,,,,,,,,,,,,,,,0,15,15,15,1,,,,,
,,,,,,,,,,,,,,218,1,2023-06-26_11h33.09.946,Online_SceneSrcMD_E,2020.2.10,MacIntel,60,,,,,,,,,,,,,,,,,,,,,,,,,,,,,,n,1,0.665,,,,,,7,n,White,,,,,,,,,,,,,,,,,,,,,,,,,,,,,,,,,,,0,16,16,16,1,,,,,
,,,,,,,,,,,,,,218,1,2023-06-26_11h33.09.946,Online_SceneSrcMD_E,2020.2.10,MacIntel,60,,,,,,,,,,,,,,,,,,,,,,,,,,,,,,n,1,0.789,,,,,,7,n,White,,,,,,,,,,,,,,,,,,,,,,,,,,,,,,,,,,,0,17,17,17,1,,,,,
,,,,,,,,,,,,,,218,1,2023-06-26_11h33.09.946,Online_SceneSrcMD_E,2020.2.10,MacIntel,60,,,,,,,,,,,,,,,,,,,,,,,,,,,,,,a,1,0.776,,,,,,K,a,White,,,,,,,,,,,,,,,,,,,,,,,,,,,,,,,,,,,0,18,18,18,1,,,,,
,,,,,,,,,,,,,,218,1,2023-06-26_11h33.09.946,Online_SceneSrcMD_E,2020.2.10,MacIntel,60,,,,,,,,,,,,,,,,,,,,,,,,,,,,,,a,1,1.293,,,,,,D,a,White,,,,,,,,,,,,,,,,,,,,,,,,,,,,,,,,,,,0,19,19,19,1,,,,,
,,,,,,,,,,,,,,218,1,2023-06-26_11h33.09.946,Online_SceneSrcMD_E,2020.2.10,MacIntel,60,,,,,,,,,,,,,,,,,,,,,,,,,,,,,,a,1,1.442,,,,,,I,a,White,,,,,,,,,,,,,,,,,,,,,,,,,,,,,,,,,,,0,20,20,20,1,,,,,
,,,,,,,,,,,,,,218,1,2023-06-26_11h33.09.946,Online_SceneSrcMD_E,2020.2.10,MacIntel,60,,,,,,,,,,,,,,,,,,,,,,,,,,,,,,n,1,0.889,,,,,,7,n,White,,,,,,,,,,,,,,,,,,,,,,,,,,,,,,,,,,,0,21,21,21,1,,,,,
,,,,,,,,,,,,,,218,1,2023-06-26_11h33.09.946,Online_SceneSrcMD_E,2020.2.10,MacIntel,60,,,,,,,,,,,,,,,,,,,,,,,,,,,,,,a,1,0.809,,,,,,R,a,White,,,,,,,,,,,,,,,,,,,,,,,,,,,,,,,,,,,0,22,22,22,1,,,,,
,,,,,,,,,,,,,,218,1,2023-06-26_11h33.09.946,Online_SceneSrcMD_E,2020.2.10,MacIntel,60,,,,,,,,,,,,,,,,,,,,,,,,,,,,,,a,1,0.822,,,,,,E,a,White,,,,,,,,,,,,,,,,,,,,,,,,,,,,,,,,,,,0,23,23,23,1,,,,,
,,,,,,,,,,,,,,218,1,2023-06-26_11h33.09.946,Online_SceneSrcMD_E,2020.2.10,MacIntel,60,,,,,,,,,,,,,,,,,,,,,,,,,,,,,,n,1,0.895,,,,,,8,n,White,,,,,,,,,,,,,,,,,,,,,,,,,,,,,,,,,,,0,24,24,24,1,,,,,
,,,,,,,,,,,,,,218,1,2023-06-26_11h33.09.946,Online_SceneSrcMD_E,2020.2.10,MacIntel,60,,,,,,,,,,,,,,,,,,,,,,,,,,,,,,a,1,1.372,,,,,,T,a,White,,,,,,,,,,,,,,,,,,,,,,,,,,,,,,,,,,,0,25,25,25,1,,,,,
,,,,,,,,,,,,,,218,1,2023-06-26_11h33.09.946,Online_SceneSrcMD_E,2020.2.10,MacIntel,60,,,,,,,,,,,,,,,,,,,,,,,,,,,,,,n,1,0.839,,,,,,0,n,White,,,,,,,,,,,,,,,,,,,,,,,,,,,,,,,,,,,0,26,26,26,1,,,,,
,,,,,,,,,,,,,,218,1,2023-06-26_11h33.09.946,Online_SceneSrcMD_E,2020.2.10,MacIntel,60,,,,,,,,,,,,,,,,,,,,,,,,,,,,,,a,1,0.811,,,,,,Q,a,White,,,,,,,,,,,,,,,,,,,,,,,,,,,,,,,,,,,0,27,27,27,1,,,,,
,,,,,,,,,,,,,,218,1,2023-06-26_11h33.09.946,Online_SceneSrcMD_E,2020.2.10,MacIntel,60,,,,,,,,,,,,,,,,,,,,,,,,,,,,,,n,1,0.895,,,,,,1,n,White,,,,,,,,,,,,,,,,,,,,,,,,,,,,,,,,,,,0,28,28,28,1,,,,,
,,,,,,,,,,,,,,218,1,2023-06-26_11h33.09.946,Online_SceneSrcMD_E,2020.2.10,MacIntel,60,,,,,,,,,,,,,,,,,,,,,,,,,,,,,,n,1,0.654,,,,,,2,n,White,,,,,,,,,,,,,,,,,,,,,,,,,,,,,,,,,,,0,29,29,29,1,,,,,
,,,,,,,,,,,,,,218,1,2023-06-26_11h33.09.946,Online_SceneSrcMD_E,2020.2.10,MacIntel,60,,,,,,,,,,,,,,,,,,,,,,,,,,,,,,n,1,0.865,,,,,,3,n,White,,,,,,,,,,,,,,,,,,,,,,,,,,,,,,,,,,,0,30,30,30,1,,,,,
,,,,,,,,,,,,,,218,1,2023-06-26_11h33.09.946,Online_SceneSrcMD_E,2020.2.10,MacIntel,60,,,,,,,,,,,,,,,,,,,,,,,,,,,,,,a,1,0.949,,,,,,L,a,White,,,,,,,,,,,,,,,,,,,,,,,,,,,,,,,,,,,0,31,31,31,1,,,,,
,,,,,,,,,,,,,,218,1,2023-06-26_11h33.09.946,Online_SceneSrcMD_E,2020.2.10,MacIntel,60,,,,,,,,,,,,,,,,,,,,,,,,,,,,,,a,1,1.089,,,,,,Y,a,White,,,,,,,,,,,,,,,,,,,,,,,,,,,,,,,,,,,0,32,32,32,1,,,,,
,,,,,,,,,,,,,,218,1,2023-06-26_11h33.09.946,Online_SceneSrcMD_E,2020.2.10,MacIntel,60,,,,,,,,,,,,,,,,,,,,,,,,,,,,,,n,1,1.123,,,,,,8,n,White,,,,,,,,,,,,,,,,,,,,,,,,,,,,,,,,,,,0,33,33,33,1,,,,,
,,,,,,,,,,,,,,218,1,2023-06-26_11h33.09.946,Online_SceneSrcMD_E,2020.2.10,MacIntel,60,,,,,,,,,,,,,,,,,,,,,,,,,,,,,,,,,,,,,,,,,,,,,,ZeroBlock.csv,Block 1,,,,,,,,,,,,,,,,,,,,,,,,,,,,,,,,,0,0,0,0,1
,,,,,,,,,,,,,,218,1,2023-06-26_11h33.09.946,Online_SceneSrcMD_E,2020.2.10,MacIntel,60,,,,,,,,,,,,,,,,,,,,,,,,,,,,,,n,1,0.755,,,,,,6,n,White,,,,,,,,,,,,,,,,,,,,,,,,,,,,,,,,,,,0,0,0,0,1,,,,,
,,,,,,,,,,,,,,218,1,2023-06-26_11h33.09.946,Online_SceneSrcMD_E,2020.2.10,MacIntel,60,,,,,,,,,,,,,,,,,,,,,,,,,,,,,,n,1,0.654,,,,,,1,n,White,,,,,,,,,,,,,,,,,,,,,,,,,,,,,,,,,,,0,1,1,1,1,,,,,
,,,,,,,,,,,,,,218,1,2023-06-26_11h33.09.946,Online_SceneSrcMD_E,2020.2.10,MacIntel,60,,,,,,,,,,,,,,,,,,,,,,,,,,,,,,a,1,1.066,,,,,,B,a,White,,,,,,,,,,,,,,,,,,,,,,,,,,,,,,,,,,,0,2,2,2,1,,,,,
,,,,,,,,,,,,,,218,1,2023-06-26_11h33.09.946,Online_SceneSrcMD_E,2020.2.10,MacIntel,60,,,,,,,,,,,,,,,,,,,,,,,,,,,,,,n,1,0.998,,,,,,4,n,White,,,,,,,,,,,,,,,,,,,,,,,,,,,,,,,,,,,0,3,3,3,1,,,,,
,,,,,,,,,,,,,,218,1,2023-06-26_11h33.09.946,Online_SceneSrcMD_E,2020.2.10,MacIntel,60,,,,,,,,,,,,,,,,,,,,,,,,,,,,,,n,1,0.973,,,,,,3,n,White,,,,,,,,,,,,,,,,,,,,,,,,,,,,,,,,,,,0,4,4,4,1,,,,,
,,,,,,,,,,,,,,218,1,2023-06-26_11h33.09.946,Online_SceneSrcMD_E,2020.2.10,MacIntel,60,,,,,,,,,,,,,,,,,,,,,,,,,,,,,,n,1,0.756,,,,,,2,n,White,,,,,,,,,,,,,,,,,,,,,,,,,,,,,,,,,,,0,5,5,5,1,,,,,
,,,,,,,,,,,,,,218,1,2023-06-26_11h33.09.946,Online_SceneSrcMD_E,2020.2.10,MacIntel,60,,,,,,,,,,,,,,,,,,,,,,,,,,,,,,n,1,0.759,,,,,,5,n,White,,,,,,,,,,,,,,,,,,,,,,,,,,,,,,,,,,,0,6,6,6,1,,,,,
,,,,,,,,,,,,,,218,1,2023-06-26_11h33.09.946,Online_SceneSrcMD_E,2020.2.10,MacIntel,60,,,,,,,,,,,,,,,,,,,,,,,,,,,,,,n,1,0.476,,,,,,3,n,White,,,,,,,,,,,,,,,,,,,,,,,,,,,,,,,,,,,0,7,7,7,1,,,,,
,,,,,,,,,,,,,,218,1,2023-06-26_11h33.09.946,Online_SceneSrcMD_E,2020.2.10,MacIntel,60,,,,,,,,,,,,,,,,,,,,,,,,,,,,,,a,1,1.129,,,,,,L,a,White,,,,,,,,,,,,,,,,,,,,,,,,,,,,,,,,,,,0,8,8,8,1,,,,,
,,,,,,,,,,,,,,218,1,2023-06-26_11h33.09.946,Online_SceneSrcMD_E,2020.2.10,MacIntel,60,,,,,,,,,,,,,,,,,,,,,,,,,,,,,,n,1,1.461,,,,,,8,n,White,,,,,,,,,,,,,,,,,,,,,,,,,,,,,,,,,,,0,9,9,9,1,,,,,
,,,,,,,,,,,,,,218,1,2023-06-26_11h33.09.946,Online_SceneSrcMD_E,2020.2.10,MacIntel,60,,,,,,,,,,,,,,,,,,,,,,,,,,,,,,a,1,0.928,,,,,,U,a,White,,,,,,,,,,,,,,,,,,,,,,,,,,,,,,,,,,,0,10,10,10,1,,,,,
,,,,,,,,,,,,,,218,1,2023-06-26_11h33.09.946,Online_SceneSrcMD_E,2020.2.10,MacIntel,60,,,,,,,,,,,,,,,,,,,,,,,,,,,,,,n,1,0.924,,,,,,3,n,White,,,,,,,,,,,,,,,,,,,,,,,,,,,,,,,,,,,0,11,11,11,1,,,,,
,,,,,,,,,,,,,,218,1,2023-06-26_11h33.09.946,Online_SceneSrcMD_E,2020.2.10,MacIntel,60,,,,,,,,,,,,,,,,,,,,,,,,,,,,,,n,1,0.729,,,,,,7,n,White,,,,,,,,,,,,,,,,,,,,,,,,,,,,,,,,,,,0,12,12,12,1,,,,,
,,,,,,,,,,,,,,218,1,2023-06-26_11h33.09.946,Online_SceneSrcMD_E,2020.2.10,MacIntel,60,,,,,,,,,,,,,,,,,,,,,,,,,,,,,,n,1,0.789,,,,,,6,n,White,,,,,,,,,,,,,,,,,,,,,,,,,,,,,,,,,,,0,13,13,13,1,,,,,
,,,,,,,,,,,,,,218,1,2023-06-26_11h33.09.946,Online_SceneSrcMD_E,2020.2.10,MacIntel,60,,,,,,,,,,,,,,,,,,,,,,,,,,,,,,a,1,1.289,,,,,,B,a,White,,,,,,,,,,,,,,,,,,,,,,,,,,,,,,,,,,,0,14,14,14,1,,,,,
,,,,,,,,,,,,,,218,1,2023-06-26_11h33.09.946,Online_SceneSrcMD_E,2020.2.10,MacIntel,60,,,,,,,,,,,,,,,,,,,,,,,,,,,,,,a,1,1.073,,,,,,M,a,White,,,,,,,,,,,,,,,,,,,,,,,,,,,,,,,,,,,0,15,15,15,1,,,,,
,,,,,,,,,,,,,,218,1,2023-06-26_11h33.09.946,Online_SceneSrcMD_E,2020.2.10,MacIntel,60,,,,,,,,,,,,,,,,,,,,,,,,,,,,,,n,1,0.823,,,,,,7,n,White,,,,,,,,,,,,,,,,,,,,,,,,,,,,,,,,,,,0,16,16,16,1,,,,,
,,,,,,,,,,,,,,218,1,2023-06-26_11h33.09.946,Online_SceneSrcMD_E,2020.2.10,MacIntel,60,,,,,,,,,,,,,,,,,,,,,,,,,,,,,,n,1,0.89,,,,,,1,n,White,,,,,,,,,,,,,,,,,,,,,,,,,,,,,,,,,,,0,17,17,17,1,,,,,
,,,,,,,,,,,,,,218,1,2023-06-26_11h33.09.946,Online_SceneSrcMD_E,2020.2.10,MacIntel,60,,,,,,,,,,,,,,,,,,,,,,,,,,,,,,n,1,0.793,,,,,,4,n,White,,,,,,,,,,,,,,,,,,,,,,,,,,,,,,,,,,,0,18,18,18,1,,,,,
,,,,,,,,,,,,,,218,1,2023-06-26_11h33.09.946,Online_SceneSrcMD_E,2020.2.10,MacIntel,60,,,,,,,,,,,,,,,,,,,,,,,,,,,,,,a,1,1.257,,,,,,Z,a,White,,,,,,,,,,,,,,,,,,,,,,,,,,,,,,,,,,,0,19,19,19,1,,,,,
,,,,,,,,,,,,,,218,1,2023-06-26_11h33.09.946,Online_SceneSrcMD_E,2020.2.10,MacIntel,60,,,,,,,,,,,,,,,,,,,,,,,,,,,,,,n,1,1.426,,,,,,5,n,White,,,,,,,,,,,,,,,,,,,,,,,,,,,,,,,,,,,0,20,20,20,1,,,,,
,,,,,,,,,,,,,,218,1,2023-06-26_11h33.09.946,Online_SceneSrcMD_E,2020.2.10,MacIntel,60,,,,,,,,,,,,,,,,,,,,,,,,,,,,,,a,1,1.942,,,,,,S,a,White,,,,,,,,,,,,,,,,,,,,,,,,,,,,,,,,,,,0,21,21,21,1,,,,,
,,,,,,,,,,,,,,218,1,2023-06-26_11h33.09.946,Online_SceneSrcMD_E,2020.2.10,MacIntel,60,,,,,,,,,,,,,,,,,,,,,,,,,,,,,,a,1,1.567,,,,,,V,a,White,,,,,,,,,,,,,,,,,,,,,,,,,,,,,,,,,,,0,22,22,22,1,,,,,
,,,,,,,,,,,,,,218,1,2023-06-26_11h33.09.946,Online_SceneSrcMD_E,2020.2.10,MacIntel,60,,,,,,,,,,,,,,,,,,,,,,,,,,,,,,n,1,0.79,,,,,,4,n,White,,,,,,,,,,,,,,,,,,,,,,,,,,,,,,,,,,,0,23,23,23,1,,,,,
,,,,,,,,,,,,,,218,1,2023-06-26_11h33.09.946,Online_SceneSrcMD_E,2020.2.10,MacIntel,60,,,,,,,,,,,,,,,,,,,,,,,,,,,,,,n,1,1.17,,,,,,6,n,White,,,,,,,,,,,,,,,,,,,,,,,,,,,,,,,,,,,0,24,24,24,1,,,,,
,,,,,,,,,,,,,,218,1,2023-06-26_11h33.09.946,Online_SceneSrcMD_E,2020.2.10,MacIntel,60,,,,,,,,,,,,,,,,,,,,,,,,,,,,,,n,1,1.293,,,,,,7,n,White,,,,,,,,,,,,,,,,,,,,,,,,,,,,,,,,,,,0,25,25,25,1,,,,,
,,,,,,,,,,,,,,218,1,2023-06-26_11h33.09.946,Online_SceneSrcMD_E,2020.2.10,MacIntel,60,,,,,,,,,,,,,,,,,,,,,,,,,,,,,,n,1,0.955,,,,,,5,n,White,,,,,,,,,,,,,,,,,,,,,,,,,,,,,,,,,,,0,26,26,26,1,,,,,
,,,,,,,,,,,,,,218,1,2023-06-26_11h33.09.946,Online_SceneSrcMD_E,2020.2.10,MacIntel,60,,,,,,,,,,,,,,,,,,,,,,,,,,,,,,n,1,1.605,,,,,,0,n,White,,,,,,,,,,,,,,,,,,,,,,,,,,,,,,,,,,,0,27,27,27,1,,,,,
,,,,,,,,,,,,,,218,1,2023-06-26_11h33.09.946,Online_SceneSrcMD_E,2020.2.10,MacIntel,60,,,,,,,,,,,,,,,,,,,,,,,,,,,,,,a,1,1.13,,,,,,G,a,White,,,,,,,,,,,,,,,,,,,,,,,,,,,,,,,,,,,0,28,28,28,1,,,,,
,,,,,,,,,,,,,,218,1,2023-06-26_11h33.09.946,Online_SceneSrcMD_E,2020.2.10,MacIntel,60,,,,,,,,,,,,,,,,,,,,,,,,,,,,,,a,1,1.224,,,,,,V,a,White,,,,,,,,,,,,,,,,,,,,,,,,,,,,,,,,,,,0,29,29,29,1,,,,,
,,,,,,,,,,,,,,218,1,2023-06-26_11h33.09.946,Online_SceneSrcMD_E,2020.2.10,MacIntel,60,,,,,,,,,,,,,,,,,,,,,,,,,,,,,,n,1,0.824,,,,,,5,n,White,,,,,,,,,,,,,,,,,,,,,,,,,,,,,,,,,,,0,30,30,30,1,,,,,
,,,,,,,,,,,,,,218,1,2023-06-26_11h33.09.946,Online_SceneSrcMD_E,2020.2.10,MacIntel,60,,,,,,,,,,,,,,,,,,,,,,,,,,,,,,n,1,0.798,,,,,,5,n,White,,,,,,,,,,,,,,,,,,,,,,,,,,,,,,,,,,,0,31,31,31,1,,,,,
,,,,,,,,,,,,,,218,1,2023-06-26_11h33.09.946,Online_SceneSrcMD_E,2020.2.10,MacIntel,60,,,,,,,,,,,,,,,,,,,,,,,,,,,,,,a,1,0.976,,,,,,Y,a,White,,,,,,,,,,,,,,,,,,,,,,,,,,,,,,,,,,,0,32,32,32,1,,,,,
,,,,,,,,,,,,,,218,1,2023-06-26_11h33.09.946,Online_SceneSrcMD_E,2020.2.10,MacIntel,60,,,,,,,,,,,,,,,,,,,,,,,,,,,,,,a,1,1.293,,,,,,R,a,White,,,,,,,,,,,,,,,,,,,,,,,,,,,,,,,,,,,0,33,33,33,1,,,,,
,,,,,,,,,,,,,,218,1,2023-06-26_11h33.09.946,Online_SceneSrcMD_E,2020.2.10,MacIntel,60,,,,,,,,,,,,,,,,,,,,,,,,,,,,,,,,,,,,,,,,,,,,,,OneBlock.csv,Block 2,,,,,,,,,,,,,,,,,,,,,,,,,,,,,,,,,0,1,1,1,1
,,,,,,,,,,,,,,218,1,2023-06-26_11h33.09.946,Online_SceneSrcMD_E,2020.2.10,MacIntel,60,,,,,,,,,,,,,,,,,,,,,,,,,,,,,,n,1,1.239,,,,,,3,n,White,,,,,,,,,,,,,,,,,,,,,,,,,,,,,,,,,,,0,0,0,0,1,,,,,
,,,,,,,,,,,,,,218,1,2023-06-26_11h33.09.946,Online_SceneSrcMD_E,2020.2.10,MacIntel,60,,,,,,,,,,,,,,,,,,,,,,,,,,,,,,n,1,0.941,,,,,,2,n,White,,,,,,,,,,,,,,,,,,,,,,,,,,,,,,,,,,,0,1,1,1,1,,,,,
,,,,,,,,,,,,,,218,1,2023-06-26_11h33.09.946,Online_SceneSrcMD_E,2020.2.10,MacIntel,60,,,,,,,,,,,,,,,,,,,,,,,,,,,,,,a,1,1.048,,,,,,E,a,White,,,,,,,,,,,,,,,,,,,,,,,,,,,,,,,,,,,0,2,2,2,1,,,,,
,,,,,,,,,,,,,,218,1,2023-06-26_11h33.09.946,Online_SceneSrcMD_E,2020.2.10,MacIntel,60,,,,,,,,,,,,,,,,,,,,,,,,,,,,,,n,1,0.789,,,,,,6,n,White,,,,,,,,,,,,,,,,,,,,,,,,,,,,,,,,,,,0,3,3,3,1,,,,,
,,,,,,,,,,,,,,218,1,2023-06-26_11h33.09.946,Online_SceneSrcMD_E,2020.2.10,MacIntel,60,,,,,,,,,,,,,,,,,,,,,,,,,,,,,,a,1,1.206,,,,,,I,a,White,,,,,,,,,,,,,,,,,,,,,,,,,,,,,,,,,,,0,4,4,4,1,,,,,
,,,,,,,,,,,,,,218,1,2023-06-26_11h33.09.946,Online_SceneSrcMD_E,2020.2.10,MacIntel,60,,,,,,,,,,,,,,,,,,,,,,,,,,,,,,n,1,1.414,,,,,,1,n,White,,,,,,,,,,,,,,,,,,,,,,,,,,,,,,,,,,,0,5,5,5,1,,,,,
,,,,,,,,,,,,,,218,1,2023-06-26_11h33.09.946,Online_SceneSrcMD_E,2020.2.10,MacIntel,60,,,,,,,,,,,,,,,,,,,,,,,,,,,,,,n,1,1.378,,,,,,6,n,White,,,,,,,,,,,,,,,,,,,,,,,,,,,,,,,,,,,0,6,6,6,1,,,,,
,,,,,,,,,,,,,,218,1,2023-06-26_11h33.09.946,Online_SceneSrcMD_E,2020.2.10,MacIntel,60,,,,,,,,,,,,,,,,,,,,,,,,,,,,,,a,1,2.24,,,,,,B,a,White,,,,,,,,,,,,,,,,,,,,,,,,,,,,,,,,,,,0,7,7,7,1,,,,,
,,,,,,,,,,,,,,218,1,2023-06-26_11h33.09.946,Online_SceneSrcMD_E,2020.2.10,MacIntel,60,,,,,,,,,,,,,,,,,,,,,,,,,,,,,,n,1,1.129,,,,,,9,n,White,,,,,,,,,,,,,,,,,,,,,,,,,,,,,,,,,,,0,8,8,8,1,,,,,
,,,,,,,,,,,,,,218,1,2023-06-26_11h33.09.946,Online_SceneSrcMD_E,2020.2.10,MacIntel,60,,,,,,,,,,,,,,,,,,,,,,,,,,,,,,n,1,1.758,,,,,,7,n,White,,,,,,,,,,,,,,,,,,,,,,,,,,,,,,,,,,,0,9,9,9,1,,,,,
,,,,,,,,,,,,,,218,1,2023-06-26_11h33.09.946,Online_SceneSrcMD_E,2020.2.10,MacIntel,60,,,,,,,,,,,,,,,,,,,,,,,,,,,,,,n,1,1.889,,,,,,7,n,White,,,,,,,,,,,,,,,,,,,,,,,,,,,,,,,,,,,0,10,10,10,1,,,,,
,,,,,,,,,,,,,,218,1,2023-06-26_11h33.09.946,Online_SceneSrcMD_E,2020.2.10,MacIntel,60,,,,,,,,,,,,,,,,,,,,,,,,,,,,,,a,1,0.743,,,,,,J,a,White,,,,,,,,,,,,,,,,,,,,,,,,,,,,,,,,,,,0,11,11,11,1,,,,,
,,,,,,,,,,,,,,218,1,2023-06-26_11h33.09.946,Online_SceneSrcMD_E,2020.2.10,MacIntel,60,,,,,,,,,,,,,,,,,,,,,,,,,,,,,,a,1,1.026,,,,,,H,a,White,,,,,,,,,,,,,,,,,,,,,,,,,,,,,,,,,,,0,12,12,12,1,,,,,
,,,,,,,,,,,,,,218,1,2023-06-26_11h33.09.946,Online_SceneSrcMD_E,2020.2.10,MacIntel,60,,,,,,,,,,,,,,,,,,,,,,,,,,,,,,n,1,0.823,,,,,,1,n,White,,,,,,,,,,,,,,,,,,,,,,,,,,,,,,,,,,,0,13,13,13,1,,,,,
,,,,,,,,,,,,,,218,1,2023-06-26_11h33.09.946,Online_SceneSrcMD_E,2020.2.10,MacIntel,60,,,,,,,,,,,,,,,,,,,,,,,,,,,,,,a,1,1.793,,,,,,H,a,White,,,,,,,,,,,,,,,,,,,,,,,,,,,,,,,,,,,0,14,14,14,1,,,,,
,,,,,,,,,,,,,,218,1,2023-06-26_11h33.09.946,Online_SceneSrcMD_E,2020.2.10,MacIntel,60,,,,,,,,,,,,,,,,,,,,,,,,,,,,,,n,1,1.412,,,,,,0,n,White,,,,,,,,,,,,,,,,,,,,,,,,,,,,,,,,,,,0,15,15,15,1,,,,,
,,,,,,,,,,,,,,218,1,2023-06-26_11h33.09.946,Online_SceneSrcMD_E,2020.2.10,MacIntel,60,,,,,,,,,,,,,,,,,,,,,,,,,,,,,,n,1,0.881,,,,,,1,n,White,,,,,,,,,,,,,,,,,,,,,,,,,,,,,,,,,,,0,16,16,16,1,,,,,
,,,,,,,,,,,,,,218,1,2023-06-26_11h33.09.946,Online_SceneSrcMD_E,2020.2.10,MacIntel,60,,,,,,,,,,,,,,,,,,,,,,,,,,,,,,a,1,1.224,,,,,,L,a,White,,,,,,,,,,,,,,,,,,,,,,,,,,,,,,,,,,,0,17,17,17,1,,,,,
,,,,,,,,,,,,,,218,1,2023-06-26_11h33.09.946,Online_SceneSrcMD_E,2020.2.10,MacIntel,60,,,,,,,,,,,,,,,,,,,,,,,,,,,,,,n,1,0.922,,,,,,6,n,White,,,,,,,,,,,,,,,,,,,,,,,,,,,,,,,,,,,0,18,18,18,1,,,,,
,,,,,,,,,,,,,,218,1,2023-06-26_11h33.09.946,Online_SceneSrcMD_E,2020.2.10,MacIntel,60,,,,,,,,,,,,,,,,,,,,,,,,,,,,,,n,1,0.724,,,,,,7,n,White,,,,,,,,,,,,,,,,,,,,,,,,,,,,,,,,,,,0,19,19,19,1,,,,,
,,,,,,,,,,,,,,218,1,2023-06-26_11h33.09.946,Online_SceneSrcMD_E,2020.2.10,MacIntel,60,,,,,,,,,,,,,,,,,,,,,,,,,,,,,,n,1,0.837,,,,,,9,n,White,,,,,,,,,,,,,,,,,,,,,,,,,,,,,,,,,,,0,20,20,20,1,,,,,
,,,,,,,,,,,,,,218,1,2023-06-26_11h33.09.946,Online_SceneSrcMD_E,2020.2.10,MacIntel,60,,,,,,,,,,,,,,,,,,,,,,,,,,,,,,a,1,0.742,,,,,,X,a,White,,,,,,,,,,,,,,,,,,,,,,,,,,,,,,,,,,,0,21,21,21,1,,,,,
,,,,,,,,,,,,,,218,1,2023-06-26_11h33.09.946,Online_SceneSrcMD_E,2020.2.10,MacIntel,60,,,,,,,,,,,,,,,,,,,,,,,,,,,,,,a,1,1.322,,,,,,W,a,White,,,,,,,,,,,,,,,,,,,,,,,,,,,,,,,,,,,0,22,22,22,1,,,,,
,,,,,,,,,,,,,,218,1,2023-06-26_11h33.09.946,Online_SceneSrcMD_E,2020.2.10,MacIntel,60,,,,,,,,,,,,,,,,,,,,,,,,,,,,,,n,1,0.854,,,,,,4,n,White,,,,,,,,,,,,,,,,,,,,,,,,,,,,,,,,,,,0,23,23,23,1,,,,,
,,,,,,,,,,,,,,218,1,2023-06-26_11h33.09.946,Online_SceneSrcMD_E,2020.2.10,MacIntel,60,,,,,,,,,,,,,,,,,,,,,,,,,,,,,,n,1,0.681,,,,,,5,n,White,,,,,,,,,,,,,,,,,,,,,,,,,,,,,,,,,,,0,24,24,24,1,,,,,
,,,,,,,,,,,,,,218,1,2023-06-26_11h33.09.946,Online_SceneSrcMD_E,2020.2.10,MacIntel,60,,,,,,,,,,,,,,,,,,,,,,,,,,,,,,a,1,1.061,,,,,,N,a,White,,,,,,,,,,,,,,,,,,,,,,,,,,,,,,,,,,,0,25,25,25,1,,,,,
,,,,,,,,,,,,,,218,1,2023-06-26_11h33.09.946,Online_SceneSrcMD_E,2020.2.10,MacIntel,60,,,,,,,,,,,,,,,,,,,,,,,,,,,,,,n,1,0.809,,,,,,5,n,White,,,,,,,,,,,,,,,,,,,,,,,,,,,,,,,,,,,0,26,26,26,1,,,,,
,,,,,,,,,,,,,,218,1,2023-06-26_11h33.09.946,Online_SceneSrcMD_E,2020.2.10,MacIntel,60,,,,,,,,,,,,,,,,,,,,,,,,,,,,,,a,1,0.829,,,,,,Y,a,White,,,,,,,,,,,,,,,,,,,,,,,,,,,,,,,,,,,0,27,27,27,1,,,,,
,,,,,,,,,,,,,,218,1,2023-06-26_11h33.09.946,Online_SceneSrcMD_E,2020.2.10,MacIntel,60,,,,,,,,,,,,,,,,,,,,,,,,,,,,,,a,1,1.175,,,,,,M,a,White,,,,,,,,,,,,,,,,,,,,,,,,,,,,,,,,,,,0,28,28,28,1,,,,,
,,,,,,,,,,,,,,218,1,2023-06-26_11h33.09.946,Online_SceneSrcMD_E,2020.2.10,MacIntel,60,,,,,,,,,,,,,,,,,,,,,,,,,,,,,,a,1,1.923,,,,,,U,a,White,,,,,,,,,,,,,,,,,,,,,,,,,,,,,,,,,,,0,29,29,29,1,,,,,
,,,,,,,,,,,,,,218,1,2023-06-26_11h33.09.946,Online_SceneSrcMD_E,2020.2.10,MacIntel,60,,,,,,,,,,,,,,,,,,,,,,,,,,,,,,n,1,0.744,,,,,,6,n,White,,,,,,,,,,,,,,,,,,,,,,,,,,,,,,,,,,,0,30,30,30,1,,,,,
,,,,,,,,,,,,,,218,1,2023-06-26_11h33.09.946,Online_SceneSrcMD_E,2020.2.10,MacIntel,60,,,,,,,,,,,,,,,,,,,,,,,,,,,,,,n,1,0.646,,,,,,6,n,White,,,,,,,,,,,,,,,,,,,,,,,,,,,,,,,,,,,0,31,31,31,1,,,,,
,,,,,,,,,,,,,,218,1,2023-06-26_11h33.09.946,Online_SceneSrcMD_E,2020.2.10,MacIntel,60,,,,,,,,,,,,,,,,,,,,,,,,,,,,,,a,1,0.824,,,,,,Y,a,White,,,,,,,,,,,,,,,,,,,,,,,,,,,,,,,,,,,0,32,32,32,1,,,,,
,,,,,,,,,,,,,,218,1,2023-06-26_11h33.09.946,Online_SceneSrcMD_E,2020.2.10,MacIntel,60,,,,,,,,,,,,,,,,,,,,,,,,,,,,,,a,1,0.873,,,,,,I,a,White,,,,,,,,,,,,,,,,,,,,,,,,,,,,,,,,,,,0,33,33,33,1,,,,,
,,,,,,,,,,,,,,218,1,2023-06-26_11h33.09.946,Online_SceneSrcMD_E,2020.2.10,MacIntel,60,,,,,,,,,,,,,,,,,,,,,,,,,,,,,,,,,,,,,,,,,,,,,,TwoBlock.csv,Block 3,,,,,,,,,,,,,,,,,,,,,,,,,,,,,,,,,0,2,2,2,1