Instructions_Loop.thisRepN,Instructions_Loop.thisTrialN,Instructions_Loop.thisN,Instructions_Loop.thisIndex,Instructions_Loop.ran,Top,Top_Bottom,TBMT_int,Middle_Top,Middle,Middle_Bottom,Bottom_Top,Bottom,Photo,participant,session,date,expName,psychopyVersion,OS,frameRate,Redo_Instructions_Resp.keys,Redo_Instructions_Resp.rt,Nback_Transition_Resp_Enc.keys,Nback_Transition_Resp_Enc.rt,Encoding_Resp.keys,Encoding_Resp.corr,Encoding_Resp.rt,Practice_Blocks.thisRepN,Practice_Blocks.thisTrialN,Practice_Blocks.thisN,Practice_Blocks.thisIndex,Practice_Blocks.ran,Scene,encAns,Practice_Enc_Break_Resp.keys,Practice_Enc_Break_Resp.rt,Practice_Enc_Break_Loop.thisRepN,Practice_Enc_Break_Loop.thisTrialN,Practice_Enc_Break_Loop.thisN,Practice_Enc_Break_Loop.thisIndex,Practice_Enc_Break_Loop.ran,Practice_Loop_Order.thisRepN,Practice_Loop_Order.thisTrialN,Practice_Loop_Order.thisN,Practice_Loop_Order.thisIndex,Practice_Loop_Order.ran,practiceFile,Nback_Transition_Resp.keys,Nback_Transition_Resp.rt,Nback_Resp.keys,Nback_Resp.corr,Nback_Resp.rt,Practice_DBack_Loop.thisRepN,Practice_DBack_Loop.thisTrialN,Practice_DBack_Loop.thisN,Practice_DBack_Loop.thisIndex,Practice_DBack_Loop.ran,thisAlphaNum,ANAns,Color,Practice_DBlock_Loop.thisRepN,Practice_DBlock_Loop.thisTrialN,Practice_DBlock_Loop.thisN,Practice_DBlock_Loop.thisIndex,Practice_DBlock_Loop.ran,ANOrder,BlockTitle,Blocks.thisRepN,Blocks.thisTrialN,Blocks.thisN,Blocks.thisIndex,Blocks.ran,AttnResp_keys.keys,AttnResp_keys.rt,Enc_Break_Resp.keys,Enc_Break_Resp.rt,Enc_Break_Loop.thisRepN,Enc_Break_Loop.thisTrialN,Enc_Break_Loop.thisN,Enc_Break_Loop.thisIndex,Enc_Break_Loop.ran,AttnCheck,Group_Order.thisRepN,Group_Order.thisTrialN,Group_Order.thisN,Group_Order.thisIndex,Group_Order.ran,blockFile,attnFile,Enc_Break_Loop2.thisRepN,Enc_Break_Loop2.thisTrialN,Enc_Break_Loop2.thisN,Enc_Break_Loop2.thisIndex,Enc_Break_Loop2.ran,DBack_Loop.thisRepN,DBack_Loop.thisTrialN,DBack_Loop.thisN,DBack_Loop.thisIndex,DBack_Loop.ran,DBlock_Loop.thisRepN,DBlock_Loop.thisTrialN,DBlock_Loop.thisN,DBlock_Loop.thisIndex,DBlock_Loop.ran
0,0,0,0,1,NaN,NaN,NaN,NaN,welcome,NaN,NaN,press SPACE to continue,Empty.png,241,1,2023-11-06_11h47.28.952,Online_SceneSrcMD_E,2020.2.10,MacIntel,60,,,,,,,,,,,,,,,,,,,,,,,,,,,,,,,,,,,,,,,,,,,,,,,,,,,,,,,,,,,,,,,,,,,,,,,,,,,,,,,,,,,,
0,1,1,1,1,NaN,NaN,NaN,in this experiment you will categorize images and symbols.,NaN,NaN,NaN,press SPACE to continue,Empty.png,241,1,2023-11-06_11h47.28.952,Online_SceneSrcMD_E,2020.2.10,MacIntel,60,,,,,,,,,,,,,,,,,,,,,,,,,,,,,,,,,,,,,,,,,,,,,,,,,,,,,,,,,,,,,,,,,,,,,,,,,,,,,,,,,,,,
0,2,2,2,1,"during the image categorization task, scenes will be presented on the screen one at a time.",NaN,NaN,each scene will be surrounded by a colored frame.,NaN,your task is to view each image and report if the frame color appears in the scene.,NaN,press SPACE to continue,Empty.png,241,1,2023-11-06_11h47.28.952,Online_SceneSrcMD_E,2020.2.10,MacIntel,60,,,,,,,,,,,,,,,,,,,,,,,,,,,,,,,,,,,,,,,,,,,,,,,,,,,,,,,,,,,,,,,,,,,,,,,,,,,,,,,,,,,,
0,3,3,3,1,"if the frame color is present in the scene, press 'P'.","otherwise, press 'Q'.",NaN,each image will be presented for four seconds.,NaN,please respond during this time.,NaN,press SPACE to continue,Empty.png,241,1,2023-11-06_11h47.28.952,Online_SceneSrcMD_E,2020.2.10,MacIntel,60,,,,,,,,,,,,,,,,,,,,,,,,,,,,,,,,,,,,,,,,,,,,,,,,,,,,,,,,,,,,,,,,,,,,,,,,,,,,,,,,,,,,
0,4,4,4,1,NaN,NaN,NaN,three blocks of images will be presented.,NaN,"after each block, you will have the option to take a short break.",NaN,press SPACE to continue,Empty.png,241,1,2023-11-06_11h47.28.952,Online_SceneSrcMD_E,2020.2.10,MacIntel,60,,,,,,,,,,,,,,,,,,,,,,,,,,,,,,,,,,,,,,,,,,,,,,,,,,,,,,,,,,,,,,,,,,,,,,,,,,,,,,,,,,,,
0,5,5,5,1,some of the images will portray scenes with emotional content.,NaN,NaN,if you become uncomfortable please remember that you can leave the experiment at any point without penalty.,NaN,NaN,NaN,press SPACE to continue,Empty.png,241,1,2023-11-06_11h47.28.952,Online_SceneSrcMD_E,2020.2.10,MacIntel,60,,,,,,,,,,,,,,,,,,,,,,,,,,,,,,,,,,,,,,,,,,,,,,,,,,,,,,,,,,,,,,,,,,,,,,,,,,,,,,,,,,,,
0,6,6,6,1,example of an image depicting a scene with emotional content:,NaN,NaN,NaN,NaN,NaN,'P' would be the correct response as blue appears in the scene.,press SPACE to continue,TS08.png,241,1,2023-11-06_11h47.28.952,Online_SceneSrcMD_E,2020.2.10,MacIntel,60,,,,,,,,,,,,,,,,,,,,,,,,,,,,,,,,,,,,,,,,,,,,,,,,,,,,,,,,,,,,,,,,,,,,,,,,,,,,,,,,,,,,
0,7,7,7,1,example of an image depicting a scene with neutral content:,NaN,NaN,NaN,NaN,NaN,'Q' would be the correct response as red does not appear in the scene.,press SPACE to continue,TS06.png,241,1,2023-11-06_11h47.28.952,Online_SceneSrcMD_E,2020.2.10,MacIntel,60,,,,,,,,,,,,,,,,,,,,,,,,,,,,,,,,,,,,,,,,,,,,,,,,,,,,,,,,,,,,,,,,,,,,,,,,,,,,,,,,,,,,
0,8,8,8,1,NaN,NaN,NaN,"after seeing both blocks of images, you will complete a symbol categorization task.",NaN,NaN,NaN,press SPACE to continue,Empty.png,241,1,2023-11-06_11h47.28.952,Online_SceneSrcMD_E,2020.2.10,MacIntel,60,,,,,,,,,,,,,,,,,,,,,,,,,,,,,,,,,,,,,,,,,,,,,,,,,,,,,,,,,,,,,,,,,,,,,,,,,,,,,,,,,,,,
0,9,9,9,1,"during the symbol categorization task, symbols will be presented on the screen one at a time.",NaN,NaN,NaN,NaN,your task is to view each symbol and report its identity.,NaN,press SPACE to continue,Empty.png,241,1,2023-11-06_11h47.28.952,Online_SceneSrcMD_E,2020.2.10,MacIntel,60,,,,,,,,,,,,,,,,,,,,,,,,,,,,,,,,,,,,,,,,,,,,,,,,,,,,,,,,,,,,,,,,,,,,,,,,,,,,,,,,,,,,
0,10,10,10,1,"if you see a number, press 'N'","if you see an alphabetical letter, press 'A'",NaN,each symbol will be presented for three seconds.,NaN,please respond during this time.,NaN,press SPACE to continue,Empty.png,241,1,2023-11-06_11h47.28.952,Online_SceneSrcMD_E,2020.2.10,MacIntel,60,,,,,,,,,,,,,,,,,,,,,,,,,,,,,,,,,,,,,,,,,,,,,,,,,,,,,,,,,,,,,,,,,,,,,,,,,,,,,,,,,,,,
0,11,11,11,1,NaN,NaN,NaN,three blocks will be presented -- there will be no breaks in between the three blocks.,NaN,NaN,NaN,press SPACE to continue,Empty.png,241,1,2023-11-06_11h47.28.952,Online_SceneSrcMD_E,2020.2.10,MacIntel,60,,,,,,,,,,,,,,,,,,,,,,,,,,,,,,,,,,,,,,,,,,,,,,,,,,,,,,,,,,,,,,,,,,,,,,,,,,,,,,,,,,,,
0,12,12,12,1,example of a number:,NaN,NaN,NaN,3,NaN,'N' would be the correct response as the symbol is a number.,press SPACE to continue,Empty.png,241,1,2023-11-06_11h47.28.952,Online_SceneSrcMD_E,2020.2.10,MacIntel,60,,,,,,,,,,,,,,,,,,,,,,,,,,,,,,,,,,,,,,,,,,,,,,,,,,,,,,,,,,,,,,,,,,,,,,,,,,,,,,,,,,,,
0,13,13,13,1,example of a alphabetical letter:,NaN,NaN,NaN,C,NaN,'A' would be the correct response as the symbol is a letter.,press SPACE to continue,Empty.png,241,1,2023-11-06_11h47.28.952,Online_SceneSrcMD_E,2020.2.10,MacIntel,60,,,,,,,,,,,,,,,,,,,,,,,,,,,,,,,,,,,,,,,,,,,,,,,,,,,,,,,,,,,,,,,,,,,,,,,,,,,,,,,,,,,,
0,14,14,14,1,NaN,NaN,NaN,this is the end of the instructions,NaN,NaN,NaN,press SPACE to continue,Empty.png,241,1,2023-11-06_11h47.28.952,Online_SceneSrcMD_E,2020.2.10,MacIntel,60,,,,,,,,,,,,,,,,,,,,,,,,,,,,,,,,,,,,,,,,,,,,,,,,,,,,,,,,,,,,,,,,,,,,,,,,,,,,,,,,,,,,
,,,,,,,,,,,,,,241,1,2023-11-06_11h47.28.952,Online_SceneSrcMD_E,2020.2.10,MacIntel,60,p,5.7775,space,9.6066,p,1,2.7876,0,0,0,0,1,TS01.png,p,,,,,,,,,,,,,,,,,,,,,,,,,,,,,,,,,,,,,,,,,,,,,,,,,,,,,,,,,,,,,,,,,,,,,,
,,,,,,,,,,,,,,241,1,2023-11-06_11h47.28.952,Online_SceneSrcMD_E,2020.2.10,MacIntel,60,,,,,q,0,2.0652,0,1,1,1,1,TS02.png,p,,,,,,,,,,,,,,,,,,,,,,,,,,,,,,,,,,,,,,,,,,,,,,,,,,,,,,,,,,,,,,,,,,,,,,
,,,,,,,,,,,,,,241,1,2023-11-06_11h47.28.952,Online_SceneSrcMD_E,2020.2.10,MacIntel,60,,,,,q,0,2.1931,0,2,2,2,1,TS05.png,p,,,,,,,,,,,,,,,,,,,,,,,,,,,,,,,,,,,,,,,,,,,,,,,,,,,,,,,,,,,,,,,,,,,,,,
,,,,,,,,,,,,,,241,1,2023-11-06_11h47.28.952,Online_SceneSrcMD_E,2020.2.10,MacIntel,60,,,,,p,0,2.5574,0,3,3,3,1,TS06.png,q,,,,,,,,,,,,,,,,,,,,,,,,,,,,,,,,,,,,,,,,,,,,,,,,,,,,,,,,,,,,,,,,,,,,,,
,,,,,,,,,,,,,,241,1,2023-11-06_11h47.28.952,Online_SceneSrcMD_E,2020.2.10,MacIntel,60,,,,,,,,,,,,,,,space,3.1489,0,0,0,0,1,,,,,,,,,,,,,,,,,,,,,,,,,,,,,,,,,,,,,,,,,,,,,,,,,,,,,,,,,,,,,,,
,,,,,,,,,,,,,,241,1,2023-11-06_11h47.28.952,Online_SceneSrcMD_E,2020.2.10,MacIntel,60,,,,,,,,,,,,,,,,,,,,,,0,0,0,0,1,PracticeONE.csv,,,,,,,,,,,,,,,,,,,,,,,,,,,,,,,,,,,,,,,,,,,,,,,,,,,,,,,,,
,,,,,,,,,,,,,,241,1,2023-11-06_11h47.28.952,Online_SceneSrcMD_E,2020.2.10,MacIntel,60,,,,,q,0,2.329,0,0,0,0,1,TS03.png,p,,,,,,,,,,,,,,,,,,,,,,,,,,,,,,,,,,,,,,,,,,,,,,,,,,,,,,,,,,,,,,,,,,,,,,
,,,,,,,,,,,,,,241,1,2023-11-06_11h47.28.952,Online_SceneSrcMD_E,2020.2.10,MacIntel,60,,,,,p,1,2.6809,0,1,1,1,1,TS04.png,p,,,,,,,,,,,,,,,,,,,,,,,,,,,,,,,,,,,,,,,,,,,,,,,,,,,,,,,,,,,,,,,,,,,,,,
,,,,,,,,,,,,,,241,1,2023-11-06_11h47.28.952,Online_SceneSrcMD_E,2020.2.10,MacIntel,60,,,,,p,1,2.7762,0,2,2,2,1,TS07.png,p,,,,,,,,,,,,,,,,,,,,,,,,,,,,,,,,,,,,,,,,,,,,,,,,,,,,,,,,,,,,,,,,,,,,,,
,,,,,,,,,,,,,,241,1,2023-11-06_11h47.28.952,Online_SceneSrcMD_E,2020.2.10,MacIntel,60,,,,,q,0,3.7615,0,3,3,3,1,TS08.png,p,,,,,,,,,,,,,,,,,,,,,,,,,,,,,,,,,,,,,,,,,,,,,,,,,,,,,,,,,,,,,,,,,,,,,,
,,,,,,,,,,,,,,241,1,2023-11-06_11h47.28.952,Online_SceneSrcMD_E,2020.2.10,MacIntel,60,,,,,,,,,,,,,,,,,,,,,,0,1,1,1,1,PracticeTWO.csv,,,,,,,,,,,,,,,,,,,,,,,,,,,,,,,,,,,,,,,,,,,,,,,,,,,,,,,,,
,,,,,,,,,,,,,,241,1,2023-11-06_11h47.28.952,Online_SceneSrcMD_E,2020.2.10,MacIntel,60,,,,,,,,,,,,,,,,,,,,,,,,,,,,space,1.7233,n,1,2.7964,0,0,0,0,1,2,n,White,,,,,,,,,,,,,,,,,,,,,,,,,,,,,,,,,,,,,,,,,,,,
,,,,,,,,,,,,,,241,1,2023-11-06_11h47.28.952,Online_SceneSrcMD_E,2020.2.10,MacIntel,60,,,,,,,,,,,,,,,,,,,,,,,,,,,,,,n,1,1.7669,0,1,1,1,1,8,n,White,,,,,,,,,,,,,,,,,,,,,,,,,,,,,,,,,,,,,,,,,,,,
,,,,,,,,,,,,,,241,1,2023-11-06_11h47.28.952,Online_SceneSrcMD_E,2020.2.10,MacIntel,60,,,,,,,,,,,,,,,,,,,,,,,,,,,,,,a,1,0.6311,0,2,2,2,1,S,a,White,,,,,,,,,,,,,,,,,,,,,,,,,,,,,,,,,,,,,,,,,,,,
,,,,,,,,,,,,,,241,1,2023-11-06_11h47.28.952,Online_SceneSrcMD_E,2020.2.10,MacIntel,60,,,,,,,,,,,,,,,,,,,,,,,,,,,,,,n,0,0.7898,0,3,3,3,1,J,a,White,,,,,,,,,,,,,,,,,,,,,,,,,,,,,,,,,,,,,,,,,,,,
,,,,,,,,,,,,,,241,1,2023-11-06_11h47.28.952,Online_SceneSrcMD_E,2020.2.10,MacIntel,60,,,,,,,,,,,,,,,,,,,,,,,,,,,,,,n,1,0.7806,0,4,4,4,1,6,n,White,,,,,,,,,,,,,,,,,,,,,,,,,,,,,,,,,,,,,,,,,,,,
,,,,,,,,,,,,,,241,1,2023-11-06_11h47.28.952,Online_SceneSrcMD_E,2020.2.10,MacIntel,60,,,,,,,,,,,,,,,,,,,,,,,,,,,,,,,,,,,,,,,,,0,0,0,0,1,Practice_ZeroBlock.csv,Practice Block 1,,,,,,,,,,,,,,,,,,,,,,,,,,,,,,,,,,,,,
,,,,,,,,,,,,,,241,1,2023-11-06_11h47.28.952,Online_SceneSrcMD_E,2020.2.10,MacIntel,60,,,,,,,,,,,,,,,,,,,,,,,,,,,,,,a,1,1.1825,0,0,0,0,1,F,a,White,,,,,,,,,,,,,,,,,,,,,,,,,,,,,,,,,,,,,,,,,,,,
,,,,,,,,,,,,,,241,1,2023-11-06_11h47.28.952,Online_SceneSrcMD_E,2020.2.10,MacIntel,60,,,,,,,,,,,,,,,,,,,,,,,,,,,,,,a,1,1.4779,0,1,1,1,1,H,a,White,,,,,,,,,,,,,,,,,,,,,,,,,,,,,,,,,,,,,,,,,,,,
,,,,,,,,,,,,,,241,1,2023-11-06_11h47.28.952,Online_SceneSrcMD_E,2020.2.10,MacIntel,60,,,,,,,,,,,,,,,,,,,,,,,,,,,,,,a,1,0.9213,0,2,2,2,1,X,a,White,,,,,,,,,,,,,,,,,,,,,,,,,,,,,,,,,,,,,,,,,,,,
,,,,,,,,,,,,,,241,1,2023-11-06_11h47.28.952,Online_SceneSrcMD_E,2020.2.10,MacIntel,60,,,,,,,,,,,,,,,,,,,,,,,,,,,,,,n,1,0.9717,0,3,3,3,1,5,n,White,,,,,,,,,,,,,,,,,,,,,,,,,,,,,,,,,,,,,,,,,,,,
,,,,,,,,,,,,,,241,1,2023-11-06_11h47.28.952,Online_SceneSrcMD_E,2020.2.10,MacIntel,60,,,,,,,,,,,,,,,,,,,,,,,,,,,,,,n,1,0.6494,0,4,4,4,1,1,n,White,,,,,,,,,,,,,,,,,,,,,,,,,,,,,,,,,,,,,,,,,,,,
,,,,,,,,,,,,,,241,1,2023-11-06_11h47.28.952,Online_SceneSrcMD_E,2020.2.10,MacIntel,60,,,,,,,,,,,,,,,,,,,,,,,,,,,,,,,,,,,,,,,,,0,1,1,1,1,Practice_OneBlock.csv,Practice Block 2,,,,,,,,,,,,,,,,,,,,,,,,,,,,,,,,,,,,,
,,,,,,,,,,,,,,241,1,2023-11-06_11h47.28.952,Online_SceneSrcMD_E,2020.2.10,MacIntel,60,,,,,,,,,,,,,,,,,,,,,,,,,,,,,,n,1,0.7812,0,0,0,0,1,2,n,White,,,,,,,,,,,,,,,,,,,,,,,,,,,,,,,,,,,,,,,,,,,,
,,,,,,,,,,,,,,241,1,2023-11-06_11h47.28.952,Online_SceneSrcMD_E,2020.2.10,MacIntel,60,,,,,,,,,,,,,,,,,,,,,,,,,,,,,,a,1,0.8648,0,1,1,1,1,V,a,White,,,,,,,,,,,,,,,,,,,,,,,,,,,,,,,,,,,,,,,,,,,,
,,,,,,,,,,,,,,241,1,2023-11-06_11h47.28.952,Online_SceneSrcMD_E,2020.2.10,MacIntel,60,,,,,,,,,,,,,,,,,,,,,,,,,,,,,,n,1,0.5471,0,2,2,2,1,5,n,White,,,,,,,,,,,,,,,,,,,,,,,,,,,,,,,,,,,,,,,,,,,,
,,,,,,,,,,,,,,241,1,2023-11-06_11h47.28.952,Online_SceneSrcMD_E,2020.2.10,MacIntel,60,,,,,,,,,,,,,,,,,,,,,,,,,,,,,,n,1,0.8401,0,3,3,3,1,2,n,White,,,,,,,,,,,,,,,,,,,,,,,,,,,,,,,,,,,,,,,,,,,,
,,,,,,,,,,,,,,241,1,2023-11-06_11h47.28.952,Online_SceneSrcMD_E,2020.2.10,MacIntel,60,,,,,,,,,,,,,,,,,,,,,,,,,,,,,,a,1,0.6029,0,4,4,4,1,F,a,White,,,,,,,,,,,,,,,,,,,,,,,,,,,,,,,,,,,,,,,,,,,,
,,,,,,,,,,,,,,241,1,2023-11-06_11h47.28.952,Online_SceneSrcMD_E,2020.2.10,MacIntel,60,,,,,,,,,,,,,,,,,,,,,,,,,,,,,,,,,,,,,,,,,0,2,2,2,1,Practice_TwoBlock.csv,Practice Block 3,,,,,,,,,,,,,,,,,,,,,,,,,,,,,,,,,,,,,
,,,,,,,,,,,,,,241,1,2023-11-06_11h47.28.952,Online_SceneSrcMD_E,2020.2.10,MacIntel,60,,,space,10.6977,p,0,1.843,,,,,,N1-4605comp.png,q,,,,,,,,,,,,,,,,,,,,,,,,,,,,,,,,,,0,0,0,0,1,,,,,,,,,,,,,,,,,,,,,,,,,,,,,,,,
,,,,,,,,,,,,,,241,1,2023-11-06_11h47.28.952,Online_SceneSrcMD_E,2020.2.10,MacIntel,60,,,,,p,1,1.1904,,,,,,E1-3150comp.png,p,,,,,,,,,,,,,,,,,,,,,,,,,,,,,,,,,,0,1,1,1,1,,,,,,,,,,,,,,,,,,,,,,,,,,,,,,,,
,,,,,,,,,,,,,,241,1,2023-11-06_11h47.28.952,Online_SceneSrcMD_E,2020.2.10,MacIntel,60,,,,,q,1,1.0586,,,,,,N1-7640comp.png,q,,,,,,,,,,,,,,,,,,,,,,,,,,,,,,,,,,0,2,2,2,1,,,,,,,,,,,,,,,,,,,,,,,,,,,,,,,,
,,,,,,,,,,,,,,241,1,2023-11-06_11h47.28.952,Online_SceneSrcMD_E,2020.2.10,MacIntel,60,,,,,p,0,1.424,,,,,,E1-1310comp.png,q,,,,,,,,,,,,,,,,,,,,,,,,,,,,,,,,,,0,3,3,3,1,,,,,,,,,,,,,,,,,,,,,,,,,,,,,,,,
,,,,,,,,,,,,,,241,1,2023-11-06_11h47.28.952,Online_SceneSrcMD_E,2020.2.10,MacIntel,60,,,,,p,1,1.5403,,,,,,N1-5994comp.png,p,,,,,,,,,,,,,,,,,,,,,,,,,,,,,,,,,,0,4,4,4,1,,,,,,,,,,,,,,,,,,,,,,,,,,,,,,,,
,,,,,,,,,,,,,,241,1,2023-11-06_11h47.28.952,Online_SceneSrcMD_E,2020.2.10,MacIntel,60,,,,,q,0,0.9417,,,,,,E1-6244comp.png,p,,,,,,,,,,,,,,,,,,,,,,,,,,,,,,,,,,0,5,5,5,1,,,,,,,,,,,,,,,,,,,,,,,,,,,,,,,,
,,,,,,,,,,,,,,241,1,2023-11-06_11h47.28.952,Online_SceneSrcMD_E,2020.2.10,MacIntel,60,,,,,q,0,0.7894,,,,,,N1-5455comp.png,p,,,,,,,,,,,,,,,,,,,,,,,,,,,,,,,,,,0,6,6,6,1,,,,,,,,,,,,,,,,,,,,,,,,,,,,,,,,
,,,,,,,,,,,,,,241,1,2023-11-06_11h47.28.952,Online_SceneSrcMD_E,2020.2.10,MacIntel,60,,,,,p,1,0.4732,,,,,,N1-1121comp.png,p,,,,,,,,,,,,,,,,,,,,,,,,,,,,,,,,,,0,7,7,7,1,,,,,,,,,,,,,,,,,,,,,,,,,,,,,,,,
,,,,,,,,,,,,,,241,1,2023-11-06_11h47.28.952,Online_SceneSrcMD_E,2020.2.10,MacIntel,60,,,,,q,1,1.9606,,,,,,E1-9254comp.png,q,,,,,,,,,,,,,,,,,,,,,,,,,,,,,,,,,,0,8,8,8,1,,,,,,,,,,,,,,,,,,,,,,,,,,,,,,,,
,,,,,,,,,,,,,,241,1,2023-11-06_11h47.28.952,Online_SceneSrcMD_E,2020.2.10,MacIntel,60,,,,,q,0,0.9429,,,,,,N1-2190comp.png,p,,,,,,,,,,,,,,,,,,,,,,,,,,,,,,,,,,0,9,9,9,1,,,,,,,,,,,,,,,,,,,,,,,,,,,,,,,,
,,,,,,,,,,,,,,241,1,2023-11-06_11h47.28.952,Online_SceneSrcMD_E,2020.2.10,MacIntel,60,,,,,p,1,1.2969,,,,,,E1-6571comp.png,p,,,,,,,,,,,,,,,,,,,,,,,,,,,,,,,,,,0,10,10,10,1,,,,,,,,,,,,,,,,,,,,,,,,,,,,,,,,
,,,,,,,,,,,,,,241,1,2023-11-06_11h47.28.952,Online_SceneSrcMD_E,2020.2.10,MacIntel,60,,,,,p,0,1.2484,,,,,,N1-1812comp.png,q,,,,,,,,,,,,,,,,,,,,,,,,,,,,,,,,,,0,11,11,11,1,,,,,,,,,,,,,,,,,,,,,,,,,,,,,,,,
,,,,,,,,,,,,,,241,1,2023-11-06_11h47.28.952,Online_SceneSrcMD_E,2020.2.10,MacIntel,60,,,,,q,1,0.9918,,,,,,E1-2053comp.png,q,,,,,,,,,,,,,,,,,,,,,,,,,,,,,,,,,,0,12,12,12,1,,,,,,,,,,,,,,,,,,,,,,,,,,,,,,,,
,,,,,,,,,,,,,,241,1,2023-11-06_11h47.28.952,Online_SceneSrcMD_E,2020.2.10,MacIntel,60,,,,,p,1,1.4243,,,,,,N1-2575comp.png,p,,,,,,,,,,,,,,,,,,,,,,,,,,,,,,,,,,0,13,13,13,1,,,,,,,,,,,,,,,,,,,,,,,,,,,,,,,,
,,,,,,,,,,,,,,241,1,2023-11-06_11h47.28.952,Online_SceneSrcMD_E,2020.2.10,MacIntel,60,,,,,p,0,1.34,,,,,,E1-9180comp.png,q,,,,,,,,,,,,,,,,,,,,,,,,,,,,,,,,,,0,14,14,14,1,,,,,,,,,,,,,,,,,,,,,,,,,,,,,,,,
,,,,,,,,,,,,,,241,1,2023-11-06_11h47.28.952,Online_SceneSrcMD_E,2020.2.10,MacIntel,60,,,,,q,0,0.5758,,,,,,N1-8460comp.png,p,,,,,,,,,,,,,,,,,,,,,,,,,,,,,,,,,,0,15,15,15,1,,,,,,,,,,,,,,,,,,,,,,,,,,,,,,,,
,,,,,,,,,,,,,,241,1,2023-11-06_11h47.28.952,Online_SceneSrcMD_E,2020.2.10,MacIntel,60,,,,,p,1,1.8232,,,,,,E1-9252comp.png,p,,,,,,,,,,,,,,,,,,,,,,,,,,,,,,,,,,0,16,16,16,1,,,,,,,,,,,,,,,,,,,,,,,,,,,,,,,,
,,,,,,,,,,,,,,241,1,2023-11-06_11h47.28.952,Online_SceneSrcMD_E,2020.2.10,MacIntel,60,,,,,p,1,2.1998,,,,,,E1-9911comp.png,p,,,,,,,,,,,,,,,,,,,,,,,,,,,,,,,,,,0,17,17,17,1,,,,,,,,,,,,,,,,,,,,,,,,,,,,,,,,
,,,,,,,,,,,,,,241,1,2023-11-06_11h47.28.952,Online_SceneSrcMD_E,2020.2.10,MacIntel,60,,,,,q,0,1.255,,,,,,N1-2393comp.png,p,,,,,,,,,,,,,,,,,,,,,,,,,,,,,,,,,,0,18,18,18,1,,,,,,,,,,,,,,,,,,,,,,,,,,,,,,,,
,,,,,,,,,,,,,,241,1,2023-11-06_11h47.28.952,Online_SceneSrcMD_E,2020.2.10,MacIntel,60,,,,,p,1,1.3098,,,,,,E1-3015comp.png,p,,,,,,,,,,,,,,,,,,,,,,,,,,,,,,,,,,0,19,19,19,1,,,,,,,,,,,,,,,,,,,,,,,,,,,,,,,,
,,,,,,,,,,,,,,241,1,2023-11-06_11h47.28.952,Online_SceneSrcMD_E,2020.2.10,MacIntel,60,,,,,,,,,,,,,,,,,,,,,,,,,,,,,,,,,,,,,,,,,,,,,,,,,,,,,"[""1"",""5"",""4"",""3""]","[5.3381999999954814,9.053699999995501,11.643100000001482,12.703499999999963]",space,1.8306,0,0,0,0,1,Attn_Colored.png,,,,,,,,,,,,,,,,,,,,,,
,,,,,,,,,,,,,,241,1,2023-11-06_11h47.28.952,Online_SceneSrcMD_E,2020.2.10,MacIntel,60,,,,,,,,,,,,,,,,,,,,,,,,,,,,,,,,,,,,,,,,,,,,,,,,,,,,,,,,,,,,,,,0,0,0,0,1,BlockOne.csv,ColorCheck.csv,,,,,,,,,,,,,,,
,,,,,,,,,,,,,,241,1,2023-11-06_11h47.28.952,Online_SceneSrcMD_E,2020.2.10,MacIntel,60,,,,,p,0,1.7903,,,,,,N1-5471comp.png,q,,,,,,,,,,,,,,,,,,,,,,,,,,,,,,,,,,0,0,0,0,1,,,,,,,,,,,,,,,,,,,,,,,,,,,,,,,,
,,,,,,,,,,,,,,241,1,2023-11-06_11h47.28.952,Online_SceneSrcMD_E,2020.2.10,MacIntel,60,,,,,p,0,1.4737,,,,,,E1-9830comp.png,q,,,,,,,,,,,,,,,,,,,,,,,,,,,,,,,,,,0,1,1,1,1,,,,,,,,,,,,,,,,,,,,,,,,,,,,,,,,
,,,,,,,,,,,,,,241,1,2023-11-06_11h47.28.952,Online_SceneSrcMD_E,2020.2.10,MacIntel,60,,,,,q,0,0.7285,,,,,,N1-2500comp.png,p,,,,,,,,,,,,,,,,,,,,,,,,,,,,,,,,,,0,2,2,2,1,,,,,,,,,,,,,,,,,,,,,,,,,,,,,,,,
,,,,,,,,,,,,,,241,1,2023-11-06_11h47.28.952,Online_SceneSrcMD_E,2020.2.10,MacIntel,60,,,,,q,0,2.1219,,,,,,E1-9253comp.png,p,,,,,,,,,,,,,,,,,,,,,,,,,,,,,,,,,,0,3,3,3,1,,,,,,,,,,,,,,,,,,,,,,,,,,,,,,,,
,,,,,,,,,,,,,,241,1,2023-11-06_11h47.28.952,Online_SceneSrcMD_E,2020.2.10,MacIntel,60,,,,,,0,,,,,,,N1-1670comp.png,q,,,,,,,,,,,,,,,,,,,,,,,,,,,,,,,,,,0,4,4,4,1,,,,,,,,,,,,,,,,,,,,,,,,,,,,,,,,
,,,,,,,,,,,,,,241,1,2023-11-06_11h47.28.952,Online_SceneSrcMD_E,2020.2.10,MacIntel,60,,,,,p,0,0.8174,,,,,,E1-3220comp.png,q,,,,,,,,,,,,,,,,,,,,,,,,,,,,,,,,,,0,5,5,5,1,,,,,,,,,,,,,,,,,,,,,,,,,,,,,,,,
,,,,,,,,,,,,,,241,1,2023-11-06_11h47.28.952,Online_SceneSrcMD_E,2020.2.10,MacIntel,60,,,,,q,0,0.4638,,,,,,N1-2597comp.png,p,,,,,,,,,,,,,,,,,,,,,,,,,,,,,,,,,,0,6,6,6,1,,,,,,,,,,,,,,,,,,,,,,,,,,,,,,,,
,,,,,,,,,,,,,,241,1,2023-11-06_11h47.28.952,Online_SceneSrcMD_E,2020.2.10,MacIntel,60,,,,,p,0,0.5288,,,,,,E1-2800comp.png,q,,,,,,,,,,,,,,,,,,,,,,,,,,,,,,,,,,0,7,7,7,1,,,,,,,,,,,,,,,,,,,,,,,,,,,,,,,,
,,,,,,,,,,,,,,241,1,2023-11-06_11h47.28.952,Online_SceneSrcMD_E,2020.2.10,MacIntel,60,,,,,q,1,1.5594,,,,,,E1-3068comp.png,q,,,,,,,,,,,,,,,,,,,,,,,,,,,,,,,,,,0,8,8,8,1,,,,,,,,,,,,,,,,,,,,,,,,,,,,,,,,
,,,,,,,,,,,,,,241,1,2023-11-06_11h47.28.952,Online_SceneSrcMD_E,2020.2.10,MacIntel,60,,,,,q,1,1.0087,,,,,,N1-5410comp.png,q,,,,,,,,,,,,,,,,,,,,,,,,,,,,,,,,,,0,9,9,9,1,,,,,,,,,,,,,,,,,,,,,,,,,,,,,,,,
,,,,,,,,,,,,,,241,1,2023-11-06_11h47.28.952,Online_SceneSrcMD_E,2020.2.10,MacIntel,60,,,,,p,1,0.6315,,,,,,N1-5390comp.png,p,,,,,,,,,,,,,,,,,,,,,,,,,,,,,,,,,,0,10,10,10,1,,,,,,,,,,,,,,,,,,,,,,,,,,,,,,,,
,,,,,,,,,,,,,,241,1,2023-11-06_11h47.28.952,Online_SceneSrcMD_E,2020.2.10,MacIntel,60,,,,,q,1,0.4581,,,,,,E1-3160comp.png,q,,,,,,,,,,,,,,,,,,,,,,,,,,,,,,,,,,0,11,11,11,1,,,,,,,,,,,,,,,,,,,,,,,,,,,,,,,,
,,,,,,,,,,,,,,241,1,2023-11-06_11h47.28.952,Online_SceneSrcMD_E,2020.2.10,MacIntel,60,,,,,p,1,0.4558,,,,,,N1-7495comp.png,p,,,,,,,,,,,,,,,,,,,,,,,,,,,,,,,,,,0,12,12,12,1,,,,,,,,,,,,,,,,,,,,,,,,,,,,,,,,
,,,,,,,,,,,,,,241,1,2023-11-06_11h47.28.952,Online_SceneSrcMD_E,2020.2.10,MacIntel,60,,,,,q,1,0.2764,,,,,,E1-2717comp.png,q,,,,,,,,,,,,,,,,,,,,,,,,,,,,,,,,,,0,13,13,13,1,,,,,,,,,,,,,,,,,,,,,,,,,,,,,,,,
,,,,,,,,,,,,,,241,1,2023-11-06_11h47.28.952,Online_SceneSrcMD_E,2020.2.10,MacIntel,60,,,,,p,1,0.8761,,,,,,E1-1525comp.png,p,,,,,,,,,,,,,,,,,,,,,,,,,,,,,,,,,,0,14,14,14,1,,,,,,,,,,,,,,,,,,,,,,,,,,,,,,,,
,,,,,,,,,,,,,,241,1,2023-11-06_11h47.28.952,Online_SceneSrcMD_E,2020.2.10,MacIntel,60,,,,,q,0,1.457,,,,,,N1-2605comp.png,p,,,,,,,,,,,,,,,,,,,,,,,,,,,,,,,,,,0,15,15,15,1,,,,,,,,,,,,,,,,,,,,,,,,,,,,,,,,
,,,,,,,,,,,,,,241,1,2023-11-06_11h47.28.952,Online_SceneSrcMD_E,2020.2.10,MacIntel,60,,,,,p,1,0.8503,,,,,,N1-2870comp.png,p,,,,,,,,,,,,,,,,,,,,,,,,,,,,,,,,,,0,16,16,16,1,,,,,,,,,,,,,,,,,,,,,,,,,,,,,,,,
,,,,,,,,,,,,,,241,1,2023-11-06_11h47.28.952,Online_SceneSrcMD_E,2020.2.10,MacIntel,60,,,,,q,0,1.2022,,,,,,E1-2352_2comp.png,p,,,,,,,,,,,,,,,,,,,,,,,,,,,,,,,,,,0,17,17,17,1,,,,,,,,,,,,,,,,,,,,,,,,,,,,,,,,
,,,,,,,,,,,,,,241,1,2023-11-06_11h47.28.952,Online_SceneSrcMD_E,2020.2.10,MacIntel,60,,,,,p,0,0.6075,,,,,,N1-2383comp.png,q,,,,,,,,,,,,,,,,,,,,,,,,,,,,,,,,,,0,18,18,18,1,,,,,,,,,,,,,,,,,,,,,,,,,,,,,,,,
,,,,,,,,,,,,,,241,1,2023-11-06_11h47.28.952,Online_SceneSrcMD_E,2020.2.10,MacIntel,60,,,,,q,1,0.6506,,,,,,E1-9600comp.png,q,,,,,,,,,,,,,,,,,,,,,,,,,,,,,,,,,,0,19,19,19,1,,,,,,,,,,,,,,,,,,,,,,,,,,,,,,,,
,,,,,,,,,,,,,,241,1,2023-11-06_11h47.28.952,Online_SceneSrcMD_E,2020.2.10,MacIntel,60,,,,,,,,,,,,,,,,,,,,,,,,,,,,,,,,,,,,,,,,,,,,,,,,,,,,,,,space,56.9809,,,,,,,,,,,,,,0,0,0,0,1,,,,,,,,,,
,,,,,,,,,,,,,,241,1,2023-11-06_11h47.28.952,Online_SceneSrcMD_E,2020.2.10,MacIntel,60,,,,,,,,,,,,,,,,,,,,,,,,,,,,,,,,,,,,,,,,,,,,,,,,,,,,,,,,,,,,,,,0,1,1,1,1,BlockTwo.csv,ColorCheck.csv,,,,,,,,,,,,,,,
,,,,,,,,,,,,,,241,1,2023-11-06_11h47.28.952,Online_SceneSrcMD_E,2020.2.10,MacIntel,60,,,,,q,0,2.4072,,,,,,E1-3280comp.png,p,,,,,,,,,,,,,,,,,,,,,,,,,,,,,,,,,,0,0,0,0,1,,,,,,,,,,,,,,,,,,,,,,,,,,,,,,,,
,,,,,,,,,,,,,,241,1,2023-11-06_11h47.28.952,Online_SceneSrcMD_E,2020.2.10,MacIntel,60,,,,,p,0,0.3069,,,,,,N1-9070comp.png,q,,,,,,,,,,,,,,,,,,,,,,,,,,,,,,,,,,0,1,1,1,1,,,,,,,,,,,,,,,,,,,,,,,,,,,,,,,,
,,,,,,,,,,,,,,241,1,2023-11-06_11h47.28.952,Online_SceneSrcMD_E,2020.2.10,MacIntel,60,,,,,q,0,0.9585,,,,,,N1-8041comp.png,p,,,,,,,,,,,,,,,,,,,,,,,,,,,,,,,,,,0,2,2,2,1,,,,,,,,,,,,,,,,,,,,,,,,,,,,,,,,
,,,,,,,,,,,,,,241,1,2023-11-06_11h47.28.952,Online_SceneSrcMD_E,2020.2.10,MacIntel,60,,,,,p,1,0.6252,,,,,,E1-3550comp.png,p,,,,,,,,,,,,,,,,,,,,,,,,,,,,,,,,,,0,3,3,3,1,,,,,,,,,,,,,,,,,,,,,,,,,,,,,,,,
,,,,,,,,,,,,,,241,1,2023-11-06_11h47.28.952,Online_SceneSrcMD_E,2020.2.10,MacIntel,60,,,,,p,1,0.4505,,,,,,N1-7503comp.png,p,,,,,,,,,,,,,,,,,,,,,,,,,,,,,,,,,,0,4,4,4,1,,,,,,,,,,,,,,,,,,,,,,,,,,,,,,,,
,,,,,,,,,,,,,,241,1,2023-11-06_11h47.28.952,Online_SceneSrcMD_E,2020.2.10,MacIntel,60,,,,,q,0,0.2811,,,,,,E1-3168comp.png,p,,,,,,,,,,,,,,,,,,,,,,,,,,,,,,,,,,0,5,5,5,1,,,,,,,,,,,,,,,,,,,,,,,,,,,,,,,,
,,,,,,,,,,,,,,241,1,2023-11-06_11h47.28.952,Online_SceneSrcMD_E,2020.2.10,MacIntel,60,,,,,q,0,1.6821,,,,,,N1-8311comp.png,p,,,,,,,,,,,,,,,,,,,,,,,,,,,,,,,,,,0,6,6,6,1,,,,,,,,,,,,,,,,,,,,,,,,,,,,,,,,
,,,,,,,,,,,,,,241,1,2023-11-06_11h47.28.952,Online_SceneSrcMD_E,2020.2.10,MacIntel,60,,,,,q,0,1.215,,,,,,N1-5731comp.png,p,,,,,,,,,,,,,,,,,,,,,,,,,,,,,,,,,,0,7,7,7,1,,,,,,,,,,,,,,,,,,,,,,,,,,,,,,,,
,,,,,,,,,,,,,,241,1,2023-11-06_11h47.28.952,Online_SceneSrcMD_E,2020.2.10,MacIntel,60,,,,,p,0,0.4013,,,,,,E1-3061comp.png,q,,,,,,,,,,,,,,,,,,,,,,,,,,,,,,,,,,0,8,8,8,1,,,,,,,,,,,,,,,,,,,,,,,,,,,,,,,,
,,,,,,,,,,,,,,241,1,2023-11-06_11h47.28.952,Online_SceneSrcMD_E,2020.2.10,MacIntel,60,,,,,q,1,1.9912,,,,,,E1-6212comp.png,q,,,,,,,,,,,,,,,,,,,,,,,,,,,,,,,,,,0,9,9,9,1,,,,,,,,,,,,,,,,,,,,,,,,,,,,,,,,
,,,,,,,,,,,,,,241,1,2023-11-06_11h47.28.952,Online_SceneSrcMD_E,2020.2.10,MacIntel,60,,,,,q,1,1.3115,,,,,,N1-1947comp.png,q,,,,,,,,,,,,,,,,,,,,,,,,,,,,,,,,,,0,10,10,10,1,,,,,,,,,,,,,,,,,,,,,,,,,,,,,,,,
,,,,,,,,,,,,,,241,1,2023-11-06_11h47.28.952,Online_SceneSrcMD_E,2020.2.10,MacIntel,60,,,,,p,0,1.2991,,,,,,E1-1274comp.png,q,,,,,,,,,,,,,,,,,,,,,,,,,,,,,,,,,,0,11,11,11,1,,,,,,,,,,,,,,,,,,,,,,,,,,,,,,,,
,,,,,,,,,,,,,,241,1,2023-11-06_11h47.28.952,Online_SceneSrcMD_E,2020.2.10,MacIntel,60,,,,,q,1,1.218,,,,,,E1-9561comp.png,q,,,,,,,,,,,,,,,,,,,,,,,,,,,,,,,,,,0,12,12,12,1,,,,,,,,,,,,,,,,,,,,,,,,,,,,,,,,
,,,,,,,,,,,,,,241,1,2023-11-06_11h47.28.952,Online_SceneSrcMD_E,2020.2.10,MacIntel,60,,,,,q,0,0.8642,,,,,,N1-2485comp.png,p,,,,,,,,,,,,,,,,,,,,,,,,,,,,,,,,,,0,13,13,13,1,,,,,,,,,,,,,,,,,,,,,,,,,,,,,,,,
,,,,,,,,,,,,,,241,1,2023-11-06_11h47.28.952,Online_SceneSrcMD_E,2020.2.10,MacIntel,60,,,,,p,0,0.9753,,,,,,E1-9250comp.png,q,,,,,,,,,,,,,,,,,,,,,,,,,,,,,,,,,,0,14,14,14,1,,,,,,,,,,,,,,,,,,,,,,,,,,,,,,,,
,,,,,,,,,,,,,,241,1,2023-11-06_11h47.28.952,Online_SceneSrcMD_E,2020.2.10,MacIntel,60,,,,,p,1,2.359,,,,,,N1-2240comp.png,p,,,,,,,,,,,,,,,,,,,,,,,,,,,,,,,,,,0,15,15,15,1,,,,,,,,,,,,,,,,,,,,,,,,,,,,,,,,
,,,,,,,,,,,,,,241,1,2023-11-06_11h47.28.952,Online_SceneSrcMD_E,2020.2.10,MacIntel,60,,,,,p,0,1.4721,,,,,,N1-9210comp.png,q,,,,,,,,,,,,,,,,,,,,,,,,,,,,,,,,,,0,16,16,16,1,,,,,,,,,,,,,,,,,,,,,,,,,,,,,,,,
,,,,,,,,,,,,,,241,1,2023-11-06_11h47.28.952,Online_SceneSrcMD_E,2020.2.10,MacIntel,60,,,,,q,0,1.9236,,,,,,E1-9810comp.png,p,,,,,,,,,,,,,,,,,,,,,,,,,,,,,,,,,,0,17,17,17,1,,,,,,,,,,,,,,,,,,,,,,,,,,,,,,,,
,,,,,,,,,,,,,,241,1,2023-11-06_11h47.28.952,Online_SceneSrcMD_E,2020.2.10,MacIntel,60,,,,,p,1,0.4897,,,,,,E1-2691comp.png,p,,,,,,,,,,,,,,,,,,,,,,,,,,,,,,,,,,0,18,18,18,1,,,,,,,,,,,,,,,,,,,,,,,,,,,,,,,,
,,,,,,,,,,,,,,241,1,2023-11-06_11h47.28.952,Online_SceneSrcMD_E,2020.2.10,MacIntel,60,,,,,p,1,0.5572,,,,,,N1-2593comp.png,p,,,,,,,,,,,,,,,,,,,,,,,,,,,,,,,,,,0,19,19,19,1,,,,,,,,,,,,,,,,,,,,,,,,,,,,,,,,
,,,,,,,,,,,,,,241,1,2023-11-06_11h47.28.952,Online_SceneSrcMD_E,2020.2.10,MacIntel,60,,,,,,,,,,,,,,,,,,,,,,,,,,,,,,,,,,,,,,,,,,,,,,,,,,,,,,,space,1.304,,,,,,,,,,,,,,0,0,0,0,1,,,,,,,,,,
,,,,,,,,,,,,,,241,1,2023-11-06_11h47.28.952,Online_SceneSrcMD_E,2020.2.10,MacIntel,60,,,,,,,,,,,,,,,,,,,,,,,,,,,,,,,,,,,,,,,,,,,,,,,,,,,,,,,,,,,,,,,0,2,2,2,1,BlockThree.csv,ColorCheck.csv,,,,,,,,,,,,,,,
,,,,,,,,,,,,,,241,1,2023-11-06_11h47.28.952,Online_SceneSrcMD_E,2020.2.10,MacIntel,60,,,,,,,,,,,,,,,,,,,,,,,,,,,,space,7.6468,a,1,0.9207,,,,,,E,a,White,,,,,,,,,,,,,,,,,,,,,,,,,,,,,,,,,,,0,0,0,0,1,,,,,
,,,,,,,,,,,,,,241,1,2023-11-06_11h47.28.952,Online_SceneSrcMD_E,2020.2.10,MacIntel,60,,,,,,,,,,,,,,,,,,,,,,,,,,,,,,n,1,1.4994,,,,,,1,n,White,,,,,,,,,,,,,,,,,,,,,,,,,,,,,,,,,,,0,1,1,1,1,,,,,
,,,,,,,,,,,,,,241,1,2023-11-06_11h47.28.952,Online_SceneSrcMD_E,2020.2.10,MacIntel,60,,,,,,,,,,,,,,,,,,,,,,,,,,,,,,n,1,0.888,,,,,,6,n,White,,,,,,,,,,,,,,,,,,,,,,,,,,,,,,,,,,,0,2,2,2,1,,,,,
,,,,,,,,,,,,,,241,1,2023-11-06_11h47.28.952,Online_SceneSrcMD_E,2020.2.10,MacIntel,60,,,,,,,,,,,,,,,,,,,,,,,,,,,,,,n,0,1.6043,,,,,,O,a,White,,,,,,,,,,,,,,,,,,,,,,,,,,,,,,,,,,,0,3,3,3,1,,,,,
,,,,,,,,,,,,,,241,1,2023-11-06_11h47.28.952,Online_SceneSrcMD_E,2020.2.10,MacIntel,60,,,,,,,,,,,,,,,,,,,,,,,,,,,,,,a,0,0.9806,,,,,,5,n,White,,,,,,,,,,,,,,,,,,,,,,,,,,,,,,,,,,,0,4,4,4,1,,,,,
,,,,,,,,,,,,,,241,1,2023-11-06_11h47.28.952,Online_SceneSrcMD_E,2020.2.10,MacIntel,60,,,,,,,,,,,,,,,,,,,,,,,,,,,,,,n,1,0.7982,,,,,,7,n,White,,,,,,,,,,,,,,,,,,,,,,,,,,,,,,,,,,,0,5,5,5,1,,,,,
,,,,,,,,,,,,,,241,1,2023-11-06_11h47.28.952,Online_SceneSrcMD_E,2020.2.10,MacIntel,60,,,,,,,,,,,,,,,,,,,,,,,,,,,,,,n,1,0.7805,,,,,,8,n,White,,,,,,,,,,,,,,,,,,,,,,,,,,,,,,,,,,,0,6,6,6,1,,,,,
,,,,,,,,,,,,,,241,1,2023-11-06_11h47.28.952,Online_SceneSrcMD_E,2020.2.10,MacIntel,60,,,,,,,,,,,,,,,,,,,,,,,,,,,,,,n,1,0.7161,,,,,,6,n,White,,,,,,,,,,,,,,,,,,,,,,,,,,,,,,,,,,,0,7,7,7,1,,,,,
,,,,,,,,,,,,,,241,1,2023-11-06_11h47.28.952,Online_SceneSrcMD_E,2020.2.10,MacIntel,60,,,,,,,,,,,,,,,,,,,,,,,,,,,,,,a,1,0.7284,,,,,,Z,a,White,,,,,,,,,,,,,,,,,,,,,,,,,,,,,,,,,,,0,8,8,8,1,,,,,
,,,,,,,,,,,,,,241,1,2023-11-06_11h47.28.952,Online_SceneSrcMD_E,2020.2.10,MacIntel,60,,,,,,,,,,,,,,,,,,,,,,,,,,,,,,a,1,1.6357,,,,,,B,a,White,,,,,,,,,,,,,,,,,,,,,,,,,,,,,,,,,,,0,9,9,9,1,,,,,
,,,,,,,,,,,,,,241,1,2023-11-06_11h47.28.952,Online_SceneSrcMD_E,2020.2.10,MacIntel,60,,,,,,,,,,,,,,,,,,,,,,,,,,,,,,a,0,2.3969,,,,,,5,n,White,,,,,,,,,,,,,,,,,,,,,,,,,,,,,,,,,,,0,10,10,10,1,,,,,
,,,,,,,,,,,,,,241,1,2023-11-06_11h47.28.952,Online_SceneSrcMD_E,2020.2.10,MacIntel,60,,,,,,,,,,,,,,,,,,,,,,,,,,,,,,a,1,0.9402,,,,,,G,a,White,,,,,,,,,,,,,,,,,,,,,,,,,,,,,,,,,,,0,11,11,11,1,,,,,
,,,,,,,,,,,,,,241,1,2023-11-06_11h47.28.952,Online_SceneSrcMD_E,2020.2.10,MacIntel,60,,,,,,,,,,,,,,,,,,,,,,,,,,,,,,n,1,0.5302,,,,,,5,n,White,,,,,,,,,,,,,,,,,,,,,,,,,,,,,,,,,,,0,12,12,12,1,,,,,
,,,,,,,,,,,,,,241,1,2023-11-06_11h47.28.952,Online_SceneSrcMD_E,2020.2.10,MacIntel,60,,,,,,,,,,,,,,,,,,,,,,,,,,,,,,a,1,1.4988,,,,,,D,a,White,,,,,,,,,,,,,,,,,,,,,,,,,,,,,,,,,,,0,13,13,13,1,,,,,
,,,,,,,,,,,,,,241,1,2023-11-06_11h47.28.952,Online_SceneSrcMD_E,2020.2.10,MacIntel,60,,,,,,,,,,,,,,,,,,,,,,,,,,,,,,a,1,1.8724,,,,,,P,a,White,,,,,,,,,,,,,,,,,,,,,,,,,,,,,,,,,,,0,14,14,14,1,,,,,
,,,,,,,,,,,,,,241,1,2023-11-06_11h47.28.952,Online_SceneSrcMD_E,2020.2.10,MacIntel,60,,,,,,,,,,,,,,,,,,,,,,,,,,,,,,n,1,0.5638,,,,,,2,n,White,,,,,,,,,,,,,,,,,,,,,,,,,,,,,,,,,,,0,15,15,15,1,,,,,
,,,,,,,,,,,,,,241,1,2023-11-06_11h47.28.952,Online_SceneSrcMD_E,2020.2.10,MacIntel,60,,,,,,,,,,,,,,,,,,,,,,,,,,,,,,n,1,0.8158,,,,,,7,n,White,,,,,,,,,,,,,,,,,,,,,,,,,,,,,,,,,,,0,16,16,16,1,,,,,
,,,,,,,,,,,,,,241,1,2023-11-06_11h47.28.952,Online_SceneSrcMD_E,2020.2.10,MacIntel,60,,,,,,,,,,,,,,,,,,,,,,,,,,,,,,n,1,0.5885,,,,,,7,n,White,,,,,,,,,,,,,,,,,,,,,,,,,,,,,,,,,,,0,17,17,17,1,,,,,
,,,,,,,,,,,,,,241,1,2023-11-06_11h47.28.952,Online_SceneSrcMD_E,2020.2.10,MacIntel,60,,,,,,,,,,,,,,,,,,,,,,,,,,,,,,a,1,0.5153,,,,,,K,a,White,,,,,,,,,,,,,,,,,,,,,,,,,,,,,,,,,,,0,18,18,18,1,,,,,
,,,,,,,,,,,,,,241,1,2023-11-06_11h47.28.952,Online_SceneSrcMD_E,2020.2.10,MacIntel,60,,,,,,,,,,,,,,,,,,,,,,,,,,,,,,a,1,0.7978,,,,,,D,a,White,,,,,,,,,,,,,,,,,,,,,,,,,,,,,,,,,,,0,19,19,19,1,,,,,
,,,,,,,,,,,,,,241,1,2023-11-06_11h47.28.952,Online_SceneSrcMD_E,2020.2.10,MacIntel,60,,,,,,,,,,,,,,,,,,,,,,,,,,,,,,a,1,1.7321,,,,,,I,a,White,,,,,,,,,,,,,,,,,,,,,,,,,,,,,,,,,,,0,20,20,20,1,,,,,
,,,,,,,,,,,,,,241,1,2023-11-06_11h47.28.952,Online_SceneSrcMD_E,2020.2.10,MacIntel,60,,,,,,,,,,,,,,,,,,,,,,,,,,,,,,n,1,0.798,,,,,,7,n,White,,,,,,,,,,,,,,,,,,,,,,,,,,,,,,,,,,,0,21,21,21,1,,,,,
,,,,,,,,,,,,,,241,1,2023-11-06_11h47.28.952,Online_SceneSrcMD_E,2020.2.10,MacIntel,60,,,,,,,,,,,,,,,,,,,,,,,,,,,,,,a,1,0.5843,,,,,,R,a,White,,,,,,,,,,,,,,,,,,,,,,,,,,,,,,,,,,,0,22,22,22,1,,,,,
,,,,,,,,,,,,,,241,1,2023-11-06_11h47.28.952,Online_SceneSrcMD_E,2020.2.10,MacIntel,60,,,,,,,,,,,,,,,,,,,,,,,,,,,,,,a,1,1.1239,,,,,,E,a,White,,,,,,,,,,,,,,,,,,,,,,,,,,,,,,,,,,,0,23,23,23,1,,,,,
,,,,,,,,,,,,,,241,1,2023-11-06_11h47.28.952,Online_SceneSrcMD_E,2020.2.10,MacIntel,60,,,,,,,,,,,,,,,,,,,,,,,,,,,,,,n,1,1.4727,,,,,,8,n,White,,,,,,,,,,,,,,,,,,,,,,,,,,,,,,,,,,,0,24,24,24,1,,,,,
,,,,,,,,,,,,,,241,1,2023-11-06_11h47.28.952,Online_SceneSrcMD_E,2020.2.10,MacIntel,60,,,,,,,,,,,,,,,,,,,,,,,,,,,,,,a,1,0.8032,,,,,,T,a,White,,,,,,,,,,,,,,,,,,,,,,,,,,,,,,,,,,,0,25,25,25,1,,,,,
,,,,,,,,,,,,,,241,1,2023-11-06_11h47.28.952,Online_SceneSrcMD_E,2020.2.10,MacIntel,60,,,,,,,,,,,,,,,,,,,,,,,,,,,,,,n,1,1.041,,,,,,0,n,White,,,,,,,,,,,,,,,,,,,,,,,,,,,,,,,,,,,0,26,26,26,1,,,,,
,,,,,,,,,,,,,,241,1,2023-11-06_11h47.28.952,Online_SceneSrcMD_E,2020.2.10,MacIntel,60,,,,,,,,,,,,,,,,,,,,,,,,,,,,,,a,1,0.8643,,,,,,Q,a,White,,,,,,,,,,,,,,,,,,,,,,,,,,,,,,,,,,,0,27,27,27,1,,,,,
,,,,,,,,,,,,,,241,1,2023-11-06_11h47.28.952,Online_SceneSrcMD_E,2020.2.10,MacIntel,60,,,,,,,,,,,,,,,,,,,,,,,,,,,,,,n,1,1.6076,,,,,,1,n,White,,,,,,,,,,,,,,,,,,,,,,,,,,,,,,,,,,,0,28,28,28,1,,,,,
,,,,,,,,,,,,,,241,1,2023-11-06_11h47.28.952,Online_SceneSrcMD_E,2020.2.10,MacIntel,60,,,,,,,,,,,,,,,,,,,,,,,,,,,,,,n,1,0.7481,,,,,,2,n,White,,,,,,,,,,,,,,,,,,,,,,,,,,,,,,,,,,,0,29,29,29,1,,,,,
,,,,,,,,,,,,,,241,1,2023-11-06_11h47.28.952,Online_SceneSrcMD_E,2020.2.10,MacIntel,60,,,,,,,,,,,,,,,,,,,,,,,,,,,,,,n,1,0.6073,,,,,,3,n,White,,,,,,,,,,,,,,,,,,,,,,,,,,,,,,,,,,,0,30,30,30,1,,,,,
,,,,,,,,,,,,,,241,1,2023-11-06_11h47.28.952,Online_SceneSrcMD_E,2020.2.10,MacIntel,60,,,,,,,,,,,,,,,,,,,,,,,,,,,,,,a,1,0.7711,,,,,,L,a,White,,,,,,,,,,,,,,,,,,,,,,,,,,,,,,,,,,,0,31,31,31,1,,,,,
,,,,,,,,,,,,,,241,1,2023-11-06_11h47.28.952,Online_SceneSrcMD_E,2020.2.10,MacIntel,60,,,,,,,,,,,,,,,,,,,,,,,,,,,,,,a,1,1.5156,,,,,,Y,a,White,,,,,,,,,,,,,,,,,,,,,,,,,,,,,,,,,,,0,32,32,32,1,,,,,
,,,,,,,,,,,,,,241,1,2023-11-06_11h47.28.952,Online_SceneSrcMD_E,2020.2.10,MacIntel,60,,,,,,,,,,,,,,,,,,,,,,,,,,,,,,n,1,0.5728,,,,,,8,n,White,,,,,,,,,,,,,,,,,,,,,,,,,,,,,,,,,,,0,33,33,33,1,,,,,
,,,,,,,,,,,,,,241,1,2023-11-06_11h47.28.952,Online_SceneSrcMD_E,2020.2.10,MacIntel,60,,,,,,,,,,,,,,,,,,,,,,,,,,,,,,,,,,,,,,,,,,,,,,ZeroBlock.csv,Block 1,,,,,,,,,,,,,,,,,,,,,,,,,,,,,,,,,0,0,0,0,1
,,,,,,,,,,,,,,241,1,2023-11-06_11h47.28.952,Online_SceneSrcMD_E,2020.2.10,MacIntel,60,,,,,,,,,,,,,,,,,,,,,,,,,,,,,,n,1,1.1147,,,,,,6,n,White,,,,,,,,,,,,,,,,,,,,,,,,,,,,,,,,,,,0,0,0,0,1,,,,,
,,,,,,,,,,,,,,241,1,2023-11-06_11h47.28.952,Online_SceneSrcMD_E,2020.2.10,MacIntel,60,,,,,,,,,,,,,,,,,,,,,,,,,,,,,,n,1,0.6345,,,,,,1,n,White,,,,,,,,,,,,,,,,,,,,,,,,,,,,,,,,,,,0,1,1,1,1,,,,,
,,,,,,,,,,,,,,241,1,2023-11-06_11h47.28.952,Online_SceneSrcMD_E,2020.2.10,MacIntel,60,,,,,,,,,,,,,,,,,,,,,,,,,,,,,,a,1,0.7337,,,,,,B,a,White,,,,,,,,,,,,,,,,,,,,,,,,,,,,,,,,,,,0,2,2,2,1,,,,,
,,,,,,,,,,,,,,241,1,2023-11-06_11h47.28.952,Online_SceneSrcMD_E,2020.2.10,MacIntel,60,,,,,,,,,,,,,,,,,,,,,,,,,,,,,,n,1,0.5714,,,,,,4,n,White,,,,,,,,,,,,,,,,,,,,,,,,,,,,,,,,,,,0,3,3,3,1,,,,,
,,,,,,,,,,,,,,241,1,2023-11-06_11h47.28.952,Online_SceneSrcMD_E,2020.2.10,MacIntel,60,,,,,,,,,,,,,,,,,,,,,,,,,,,,,,n,1,0.5026,,,,,,3,n,White,,,,,,,,,,,,,,,,,,,,,,,,,,,,,,,,,,,0,4,4,4,1,,,,,
,,,,,,,,,,,,,,241,1,2023-11-06_11h47.28.952,Online_SceneSrcMD_E,2020.2.10,MacIntel,60,,,,,,,,,,,,,,,,,,,,,,,,,,,,,,n,1,0.599,,,,,,2,n,White,,,,,,,,,,,,,,,,,,,,,,,,,,,,,,,,,,,0,5,5,5,1,,,,,
,,,,,,,,,,,,,,241,1,2023-11-06_11h47.28.952,Online_SceneSrcMD_E,2020.2.10,MacIntel,60,,,,,,,,,,,,,,,,,,,,,,,,,,,,,,n,1,0.6159,,,,,,5,n,White,,,,,,,,,,,,,,,,,,,,,,,,,,,,,,,,,,,0,6,6,6,1,,,,,
,,,,,,,,,,,,,,241,1,2023-11-06_11h47.28.952,Online_SceneSrcMD_E,2020.2.10,MacIntel,60,,,,,,,,,,,,,,,,,,,,,,,,,,,,,,n,1,0.5147,,,,,,3,n,White,,,,,,,,,,,,,,,,,,,,,,,,,,,,,,,,,,,0,7,7,7,1,,,,,
,,,,,,,,,,,,,,241,1,2023-11-06_11h47.28.952,Online_SceneSrcMD_E,2020.2.10,MacIntel,60,,,,,,,,,,,,,,,,,,,,,,,,,,,,,,a,1,0.6719,,,,,,L,a,White,,,,,,,,,,,,,,,,,,,,,,,,,,,,,,,,,,,0,8,8,8,1,,,,,
,,,,,,,,,,,,,,241,1,2023-11-06_11h47.28.952,Online_SceneSrcMD_E,2020.2.10,MacIntel,60,,,,,,,,,,,,,,,,,,,,,,,,,,,,,,n,1,1.0979,,,,,,8,n,White,,,,,,,,,,,,,,,,,,,,,,,,,,,,,,,,,,,0,9,9,9,1,,,,,
,,,,,,,,,,,,,,241,1,2023-11-06_11h47.28.952,Online_SceneSrcMD_E,2020.2.10,MacIntel,60,,,,,,,,,,,,,,,,,,,,,,,,,,,,,,a,1,0.8879,,,,,,U,a,White,,,,,,,,,,,,,,,,,,,,,,,,,,,,,,,,,,,0,10,10,10,1,,,,,
,,,,,,,,,,,,,,241,1,2023-11-06_11h47.28.952,Online_SceneSrcMD_E,2020.2.10,MacIntel,60,,,,,,,,,,,,,,,,,,,,,,,,,,,,,,n,1,0.4983,,,,,,3,n,White,,,,,,,,,,,,,,,,,,,,,,,,,,,,,,,,,,,0,11,11,11,1,,,,,
,,,,,,,,,,,,,,241,1,2023-11-06_11h47.28.952,Online_SceneSrcMD_E,2020.2.10,MacIntel,60,,,,,,,,,,,,,,,,,,,,,,,,,,,,,,n,1,1.2409,,,,,,7,n,White,,,,,,,,,,,,,,,,,,,,,,,,,,,,,,,,,,,0,12,12,12,1,,,,,
,,,,,,,,,,,,,,241,1,2023-11-06_11h47.28.952,Online_SceneSrcMD_E,2020.2.10,MacIntel,60,,,,,,,,,,,,,,,,,,,,,,,,,,,,,,n,1,0.7233,,,,,,6,n,White,,,,,,,,,,,,,,,,,,,,,,,,,,,,,,,,,,,0,13,13,13,1,,,,,
,,,,,,,,,,,,,,241,1,2023-11-06_11h47.28.952,Online_SceneSrcMD_E,2020.2.10,MacIntel,60,,,,,,,,,,,,,,,,,,,,,,,,,,,,,,a,1,0.8973,,,,,,B,a,White,,,,,,,,,,,,,,,,,,,,,,,,,,,,,,,,,,,0,14,14,14,1,,,,,
,,,,,,,,,,,,,,241,1,2023-11-06_11h47.28.952,Online_SceneSrcMD_E,2020.2.10,MacIntel,60,,,,,,,,,,,,,,,,,,,,,,,,,,,,,,a,1,0.7548,,,,,,M,a,White,,,,,,,,,,,,,,,,,,,,,,,,,,,,,,,,,,,0,15,15,15,1,,,,,
,,,,,,,,,,,,,,241,1,2023-11-06_11h47.28.952,Online_SceneSrcMD_E,2020.2.10,MacIntel,60,,,,,,,,,,,,,,,,,,,,,,,,,,,,,,n,1,0.598,,,,,,7,n,White,,,,,,,,,,,,,,,,,,,,,,,,,,,,,,,,,,,0,16,16,16,1,,,,,
,,,,,,,,,,,,,,241,1,2023-11-06_11h47.28.952,Online_SceneSrcMD_E,2020.2.10,MacIntel,60,,,,,,,,,,,,,,,,,,,,,,,,,,,,,,n,1,0.7977,,,,,,1,n,White,,,,,,,,,,,,,,,,,,,,,,,,,,,,,,,,,,,0,17,17,17,1,,,,,
,,,,,,,,,,,,,,241,1,2023-11-06_11h47.28.952,Online_SceneSrcMD_E,2020.2.10,MacIntel,60,,,,,,,,,,,,,,,,,,,,,,,,,,,,,,n,1,0.7826,,,,,,4,n,White,,,,,,,,,,,,,,,,,,,,,,,,,,,,,,,,,,,0,18,18,18,1,,,,,
,,,,,,,,,,,,,,241,1,2023-11-06_11h47.28.952,Online_SceneSrcMD_E,2020.2.10,MacIntel,60,,,,,,,,,,,,,,,,,,,,,,,,,,,,,,a,1,1.4664,,,,,,Z,a,White,,,,,,,,,,,,,,,,,,,,,,,,,,,,,,,,,,,0,19,19,19,1,,,,,
,,,,,,,,,,,,,,241,1,2023-11-06_11h47.28.952,Online_SceneSrcMD_E,2020.2.10,MacIntel,60,,,,,,,,,,,,,,,,,,,,,,,,,,,,,,n,1,1.0561,,,,,,5,n,White,,,,,,,,,,,,,,,,,,,,,,,,,,,,,,,,,,,0,20,20,20,1,,,,,
,,,,,,,,,,,,,,241,1,2023-11-06_11h47.28.952,Online_SceneSrcMD_E,2020.2.10,MacIntel,60,,,,,,,,,,,,,,,,,,,,,,,,,,,,,,a,1,1.1116,,,,,,S,a,White,,,,,,,,,,,,,,,,,,,,,,,,,,,,,,,,,,,0,21,21,21,1,,,,,
,,,,,,,,,,,,,,241,1,2023-11-06_11h47.28.952,Online_SceneSrcMD_E,2020.2.10,MacIntel,60,,,,,,,,,,,,,,,,,,,,,,,,,,,,,,a,1,1.5511,,,,,,V,a,White,,,,,,,,,,,,,,,,,,,,,,,,,,,,,,,,,,,0,22,22,22,1,,,,,
,,,,,,,,,,,,,,241,1,2023-11-06_11h47.28.952,Online_SceneSrcMD_E,2020.2.10,MacIntel,60,,,,,,,,,,,,,,,,,,,,,,,,,,,,,,n,1,0.8143,,,,,,4,n,White,,,,,,,,,,,,,,,,,,,,,,,,,,,,,,,,,,,0,23,23,23,1,,,,,
,,,,,,,,,,,,,,241,1,2023-11-06_11h47.28.952,Online_SceneSrcMD_E,2020.2.10,MacIntel,60,,,,,,,,,,,,,,,,,,,,,,,,,,,,,,n,1,0.5997,,,,,,6,n,White,,,,,,,,,,,,,,,,,,,,,,,,,,,,,,,,,,,0,24,24,24,1,,,,,
,,,,,,,,,,,,,,241,1,2023-11-06_11h47.28.952,Online_SceneSrcMD_E,2020.2.10,MacIntel,60,,,,,,,,,,,,,,,,,,,,,,,,,,,,,,n,1,0.7143,,,,,,7,n,White,,,,,,,,,,,,,,,,,,,,,,,,,,,,,,,,,,,0,25,25,25,1,,,,,
,,,,,,,,,,,,,,241,1,2023-11-06_11h47.28.952,Online_SceneSrcMD_E,2020.2.10,MacIntel,60,,,,,,,,,,,,,,,,,,,,,,,,,,,,,,n,1,0.5831,,,,,,5,n,White,,,,,,,,,,,,,,,,,,,,,,,,,,,,,,,,,,,0,26,26,26,1,,,,,
,,,,,,,,,,,,,,241,1,2023-11-06_11h47.28.952,Online_SceneSrcMD_E,2020.2.10,MacIntel,60,,,,,,,,,,,,,,,,,,,,,,,,,,,,,,n,1,1.2987,,,,,,0,n,White,,,,,,,,,,,,,,,,,,,,,,,,,,,,,,,,,,,0,27,27,27,1,,,,,
,,,,,,,,,,,,,,241,1,2023-11-06_11h47.28.952,Online_SceneSrcMD_E,2020.2.10,MacIntel,60,,,,,,,,,,,,,,,,,,,,,,,,,,,,,,a,1,1.0568,,,,,,G,a,White,,,,,,,,,,,,,,,,,,,,,,,,,,,,,,,,,,,0,28,28,28,1,,,,,
,,,,,,,,,,,,,,241,1,2023-11-06_11h47.28.952,Online_SceneSrcMD_E,2020.2.10,MacIntel,60,,,,,,,,,,,,,,,,,,,,,,,,,,,,,,a,1,0.6201,,,,,,V,a,White,,,,,,,,,,,,,,,,,,,,,,,,,,,,,,,,,,,0,29,29,29,1,,,,,
,,,,,,,,,,,,,,241,1,2023-11-06_11h47.28.952,Online_SceneSrcMD_E,2020.2.10,MacIntel,60,,,,,,,,,,,,,,,,,,,,,,,,,,,,,,n,1,0.6084,,,,,,5,n,White,,,,,,,,,,,,,,,,,,,,,,,,,,,,,,,,,,,0,30,30,30,1,,,,,
,,,,,,,,,,,,,,241,1,2023-11-06_11h47.28.952,Online_SceneSrcMD_E,2020.2.10,MacIntel,60,,,,,,,,,,,,,,,,,,,,,,,,,,,,,,n,1,0.5234,,,,,,5,n,White,,,,,,,,,,,,,,,,,,,,,,,,,,,,,,,,,,,0,31,31,31,1,,,,,
,,,,,,,,,,,,,,241,1,2023-11-06_11h47.28.952,Online_SceneSrcMD_E,2020.2.10,MacIntel,60,,,,,,,,,,,,,,,,,,,,,,,,,,,,,,a,1,0.9648,,,,,,Y,a,White,,,,,,,,,,,,,,,,,,,,,,,,,,,,,,,,,,,0,32,32,32,1,,,,,
,,,,,,,,,,,,,,241,1,2023-11-06_11h47.28.952,Online_SceneSrcMD_E,2020.2.10,MacIntel,60,,,,,,,,,,,,,,,,,,,,,,,,,,,,,,a,1,0.836,,,,,,R,a,White,,,,,,,,,,,,,,,,,,,,,,,,,,,,,,,,,,,0,33,33,33,1,,,,,
,,,,,,,,,,,,,,241,1,2023-11-06_11h47.28.952,Online_SceneSrcMD_E,2020.2.10,MacIntel,60,,,,,,,,,,,,,,,,,,,,,,,,,,,,,,,,,,,,,,,,,,,,,,OneBlock.csv,Block 2,,,,,,,,,,,,,,,,,,,,,,,,,,,,,,,,,0,1,1,1,1
,,,,,,,,,,,,,,241,1,2023-11-06_11h47.28.952,Online_SceneSrcMD_E,2020.2.10,MacIntel,60,,,,,,,,,,,,,,,,,,,,,,,,,,,,,,n,1,1.1179,,,,,,3,n,White,,,,,,,,,,,,,,,,,,,,,,,,,,,,,,,,,,,0,0,0,0,1,,,,,
,,,,,,,,,,,,,,241,1,2023-11-06_11h47.28.952,Online_SceneSrcMD_E,2020.2.10,MacIntel,60,,,,,,,,,,,,,,,,,,,,,,,,,,,,,,n,1,0.636,,,,,,2,n,White,,,,,,,,,,,,,,,,,,,,,,,,,,,,,,,,,,,0,1,1,1,1,,,,,
,,,,,,,,,,,,,,241,1,2023-11-06_11h47.28.952,Online_SceneSrcMD_E,2020.2.10,MacIntel,60,,,,,,,,,,,,,,,,,,,,,,,,,,,,,,a,1,0.8884,,,,,,E,a,White,,,,,,,,,,,,,,,,,,,,,,,,,,,,,,,,,,,0,2,2,2,1,,,,,
,,,,,,,,,,,,,,241,1,2023-11-06_11h47.28.952,Online_SceneSrcMD_E,2020.2.10,MacIntel,60,,,,,,,,,,,,,,,,,,,,,,,,,,,,,,n,1,0.8626,,,,,,6,n,White,,,,,,,,,,,,,,,,,,,,,,,,,,,,,,,,,,,0,3,3,3,1,,,,,
,,,,,,,,,,,,,,241,1,2023-11-06_11h47.28.952,Online_SceneSrcMD_E,2020.2.10,MacIntel,60,,,,,,,,,,,,,,,,,,,,,,,,,,,,,,a,1,0.8097,,,,,,I,a,White,,,,,,,,,,,,,,,,,,,,,,,,,,,,,,,,,,,0,4,4,4,1,,,,,
,,,,,,,,,,,,,,241,1,2023-11-06_11h47.28.952,Online_SceneSrcMD_E,2020.2.10,MacIntel,60,,,,,,,,,,,,,,,,,,,,,,,,,,,,,,a,0,0.6042,,,,,,1,n,White,,,,,,,,,,,,,,,,,,,,,,,,,,,,,,,,,,,0,5,5,5,1,,,,,
,,,,,,,,,,,,,,241,1,2023-11-06_11h47.28.952,Online_SceneSrcMD_E,2020.2.10,MacIntel,60,,,,,,,,,,,,,,,,,,,,,,,,,,,,,,n,1,0.5345,,,,,,6,n,White,,,,,,,,,,,,,,,,,,,,,,,,,,,,,,,,,,,0,6,6,6,1,,,,,
,,,,,,,,,,,,,,241,1,2023-11-06_11h47.28.952,Online_SceneSrcMD_E,2020.2.10,MacIntel,60,,,,,,,,,,,,,,,,,,,,,,,,,,,,,,a,1,0.7649,,,,,,B,a,White,,,,,,,,,,,,,,,,,,,,,,,,,,,,,,,,,,,0,7,7,7,1,,,,,
,,,,,,,,,,,,,,241,1,2023-11-06_11h47.28.952,Online_SceneSrcMD_E,2020.2.10,MacIntel,60,,,,,,,,,,,,,,,,,,,,,,,,,,,,,,n,1,0.5669,,,,,,9,n,White,,,,,,,,,,,,,,,,,,,,,,,,,,,,,,,,,,,0,8,8,8,1,,,,,
,,,,,,,,,,,,,,241,1,2023-11-06_11h47.28.952,Online_SceneSrcMD_E,2020.2.10,MacIntel,60,,,,,,,,,,,,,,,,,,,,,,,,,,,,,,n,1,0.6037,,,,,,7,n,White,,,,,,,,,,,,,,,,,,,,,,,,,,,,,,,,,,,0,9,9,9,1,,,,,
,,,,,,,,,,,,,,241,1,2023-11-06_11h47.28.952,Online_SceneSrcMD_E,2020.2.10,MacIntel,60,,,,,,,,,,,,,,,,,,,,,,,,,,,,,,n,1,0.4979,,,,,,7,n,White,,,,,,,,,,,,,,,,,,,,,,,,,,,,,,,,,,,0,10,10,10,1,,,,,
,,,,,,,,,,,,,,241,1,2023-11-06_11h47.28.952,Online_SceneSrcMD_E,2020.2.10,MacIntel,60,,,,,,,,,,,,,,,,,,,,,,,,,,,,,,a,1,0.6666,,,,,,J,a,White,,,,,,,,,,,,,,,,,,,,,,,,,,,,,,,,,,,0,11,11,11,1,,,,,
,,,,,,,,,,,,,,241,1,2023-11-06_11h47.28.952,Online_SceneSrcMD_E,2020.2.10,MacIntel,60,,,,,,,,,,,,,,,,,,,,,,,,,,,,,,a,1,0.4879,,,,,,H,a,White,,,,,,,,,,,,,,,,,,,,,,,,,,,,,,,,,,,0,12,12,12,1,,,,,
,,,,,,,,,,,,,,241,1,2023-11-06_11h47.28.952,Online_SceneSrcMD_E,2020.2.10,MacIntel,60,,,,,,,,,,,,,,,,,,,,,,,,,,,,,,n,1,0.5639,,,,,,1,n,White,,,,,,,,,,,,,,,,,,,,,,,,,,,,,,,,,,,0,13,13,13,1,,,,,
,,,,,,,,,,,,,,241,1,2023-11-06_11h47.28.952,Online_SceneSrcMD_E,2020.2.10,MacIntel,60,,,,,,,,,,,,,,,,,,,,,,,,,,,,,,a,1,0.6399,,,,,,H,a,White,,,,,,,,,,,,,,,,,,,,,,,,,,,,,,,,,,,0,14,14,14,1,,,,,
,,,,,,,,,,,,,,241,1,2023-11-06_11h47.28.952,Online_SceneSrcMD_E,2020.2.10,MacIntel,60,,,,,,,,,,,,,,,,,,,,,,,,,,,,,,n,1,1.0647,,,,,,0,n,White,,,,,,,,,,,,,,,,,,,,,,,,,,,,,,,,,,,0,15,15,15,1,,,,,
,,,,,,,,,,,,,,241,1,2023-11-06_11h47.28.952,Online_SceneSrcMD_E,2020.2.10,MacIntel,60,,,,,,,,,,,,,,,,,,,,,,,,,,,,,,n,1,0.8171,,,,,,1,n,White,,,,,,,,,,,,,,,,,,,,,,,,,,,,,,,,,,,0,16,16,16,1,,,,,
,,,,,,,,,,,,,,241,1,2023-11-06_11h47.28.952,Online_SceneSrcMD_E,2020.2.10,MacIntel,60,,,,,,,,,,,,,,,,,,,,,,,,,,,,,,a,1,0.6969,,,,,,L,a,White,,,,,,,,,,,,,,,,,,,,,,,,,,,,,,,,,,,0,17,17,17,1,,,,,
,,,,,,,,,,,,,,241,1,2023-11-06_11h47.28.952,Online_SceneSrcMD_E,2020.2.10,MacIntel,60,,,,,,,,,,,,,,,,,,,,,,,,,,,,,,n,1,0.9481,,,,,,6,n,White,,,,,,,,,,,,,,,,,,,,,,,,,,,,,,,,,,,0,18,18,18,1,,,,,
,,,,,,,,,,,,,,241,1,2023-11-06_11h47.28.952,Online_SceneSrcMD_E,2020.2.10,MacIntel,60,,,,,,,,,,,,,,,,,,,,,,,,,,,,,,n,1,0.7151,,,,,,7,n,White,,,,,,,,,,,,,,,,,,,,,,,,,,,,,,,,,,,0,19,19,19,1,,,,,
,,,,,,,,,,,,,,241,1,2023-11-06_11h47.28.952,Online_SceneSrcMD_E,2020.2.10,MacIntel,60,,,,,,,,,,,,,,,,,,,,,,,,,,,,,,n,1,0.5667,,,,,,9,n,White,,,,,,,,,,,,,,,,,,,,,,,,,,,,,,,,,,,0,20,20,20,1,,,,,
,,,,,,,,,,,,,,241,1,2023-11-06_11h47.28.952,Online_SceneSrcMD_E,2020.2.10,MacIntel,60,,,,,,,,,,,,,,,,,,,,,,,,,,,,,,a,1,0.7803,,,,,,X,a,White,,,,,,,,,,,,,,,,,,,,,,,,,,,,,,,,,,,0,21,21,21,1,,,,,
,,,,,,,,,,,,,,241,1,2023-11-06_11h47.28.952,Online_SceneSrcMD_E,2020.2.10,MacIntel,60,,,,,,,,,,,,,,,,,,,,,,,,,,,,,,a,1,1.2487,,,,,,W,a,White,,,,,,,,,,,,,,,,,,,,,,,,,,,,,,,,,,,0,22,22,22,1,,,,,
,,,,,,,,,,,,,,241,1,2023-11-06_11h47.28.952,Online_SceneSrcMD_E,2020.2.10,MacIntel,60,,,,,,,,,,,,,,,,,,,,,,,,,,,,,,n,1,1.3889,,,,,,4,n,White,,,,,,,,,,,,,,,,,,,,,,,,,,,,,,,,,,,0,23,23,23,1,,,,,
,,,,,,,,,,,,,,241,1,2023-11-06_11h47.28.952,Online_SceneSrcMD_E,2020.2.10,MacIntel,60,,,,,,,,,,,,,,,,,,,,,,,,,,,,,,n,1,0.848,,,,,,5,n,White,,,,,,,,,,,,,,,,,,,,,,,,,,,,,,,,,,,0,24,24,24,1,,,,,
,,,,,,,,,,,,,,241,1,2023-11-06_11h47.28.952,Online_SceneSrcMD_E,2020.2.10,MacIntel,60,,,,,,,,,,,,,,,,,,,,,,,,,,,,,,a,1,2.6037,,,,,,N,a,White,,,,,,,,,,,,,,,,,,,,,,,,,,,,,,,,,,,0,25,25,25,1,,,,,
,,,,,,,,,,,,,,241,1,2023-11-06_11h47.28.952,Online_SceneSrcMD_E,2020.2.10,MacIntel,60,,,,,,,,,,,,,,,,,,,,,,,,,,,,,,n,1,0.8148,,,,,,5,n,White,,,,,,,,,,,,,,,,,,,,,,,,,,,,,,,,,,,0,26,26,26,1,,,,,
,,,,,,,,,,,,,,241,1,2023-11-06_11h47.28.952,Online_SceneSrcMD_E,2020.2.10,MacIntel,60,,,,,,,,,,,,,,,,,,,,,,,,,,,,,,a,1,1.0658,,,,,,Y,a,White,,,,,,,,,,,,,,,,,,,,,,,,,,,,,,,,,,,0,27,27,27,1,,,,,
,,,,,,,,,,,,,,241,1,2023-11-06_11h47.28.952,Online_SceneSrcMD_E,2020.2.10,MacIntel,60,,,,,,,,,,,,,,,,,,,,,,,,,,,,,,a,1,0.5143,,,,,,M,a,White,,,,,,,,,,,,,,,,,,,,,,,,,,,,,,,,,,,0,28,28,28,1,,,,,
,,,,,,,,,,,,,,241,1,2023-11-06_11h47.28.952,Online_SceneSrcMD_E,2020.2.10,MacIntel,60,,,,,,,,,,,,,,,,,,,,,,,,,,,,,,a,1,0.9399,,,,,,U,a,White,,,,,,,,,,,,,,,,,,,,,,,,,,,,,,,,,,,0,29,29,29,1,,,,,
,,,,,,,,,,,,,,241,1,2023-11-06_11h47.28.952,Online_SceneSrcMD_E,2020.2.10,MacIntel,60,,,,,,,,,,,,,,,,,,,,,,,,,,,,,,n,1,0.9148,,,,,,6,n,White,,,,,,,,,,,,,,,,,,,,,,,,,,,,,,,,,,,0,30,30,30,1,,,,,
,,,,,,,,,,,,,,241,1,2023-11-06_11h47.28.952,Online_SceneSrcMD_E,2020.2.10,MacIntel,60,,,,,,,,,,,,,,,,,,,,,,,,,,,,,,n,1,0.6666,,,,,,6,n,White,,,,,,,,,,,,,,,,,,,,,,,,,,,,,,,,,,,0,31,31,31,1,,,,,
,,,,,,,,,,,,,,241,1,2023-11-06_11h47.28.952,Online_SceneSrcMD_E,2020.2.10,MacIntel,60,,,,,,,,,,,,,,,,,,,,,,,,,,,,,,a,1,0.9347,,,,,,Y,a,White,,,,,,,,,,,,,,,,,,,,,,,,,,,,,,,,,,,0,32,32,32,1,,,,,
,,,,,,,,,,,,,,241,1,2023-11-06_11h47.28.952,Online_SceneSrcMD_E,2020.2.10,MacIntel,60,,,,,,,,,,,,,,,,,,,,,,,,,,,,,,a,1,1.0344,,,,,,I,a,White,,,,,,,,,,,,,,,,,,,,,,,,,,,,,,,,,,,0,33,33,33,1,,,,,
,,,,,,,,,,,,,,241,1,2023-11-06_11h47.28.952,Online_SceneSrcMD_E,2020.2.10,MacIntel,60,,,,,,,,,,,,,,,,,,,,,,,,,,,,,,,,,,,,,,,,,,,,,,TwoBlock.csv,Block 3,,,,,,,,,,,,,,,,,,,,,,,,,,,,,,,,,0,2,2,2,1