Instructions_Loop.thisRepN,Instructions_Loop.thisTrialN,Instructions_Loop.thisN,Instructions_Loop.thisIndex,Instructions_Loop.ran,Top,Top_Bottom,TBMT_int,Middle_Top,Middle,Middle_Bottom,Bottom_Top,Bottom,Photo,participant,session,date,expName,psychopyVersion,OS,frameRate,Redo_Instructions_Resp.keys,Redo_Instructions_Resp.rt,Nback_Transition_Resp_Enc.keys,Nback_Transition_Resp_Enc.rt,Encoding_Resp.keys,Encoding_Resp.corr,Practice_Blocks.thisRepN,Practice_Blocks.thisTrialN,Practice_Blocks.thisN,Practice_Blocks.thisIndex,Practice_Blocks.ran,Scene,encAns,Practice_Enc_Break_Resp.keys,Practice_Enc_Break_Resp.rt,Practice_Enc_Break_Loop.thisRepN,Practice_Enc_Break_Loop.thisTrialN,Practice_Enc_Break_Loop.thisN,Practice_Enc_Break_Loop.thisIndex,Practice_Enc_Break_Loop.ran,Practice_Loop_Order.thisRepN,Practice_Loop_Order.thisTrialN,Practice_Loop_Order.thisN,Practice_Loop_Order.thisIndex,Practice_Loop_Order.ran,practiceFile,Nback_Transition_Resp.keys,Nback_Transition_Resp.rt,Nback_Resp.keys,Nback_Resp.corr,Practice_DBack_Loop.thisRepN,Practice_DBack_Loop.thisTrialN,Practice_DBack_Loop.thisN,Practice_DBack_Loop.thisIndex,Practice_DBack_Loop.ran,thisAlphaNum,ANAns,Color,Practice_DBlock_Loop.thisRepN,Practice_DBlock_Loop.thisTrialN,Practice_DBlock_Loop.thisN,Practice_DBlock_Loop.thisIndex,Practice_DBlock_Loop.ran,ANOrder,BlockTitle,Blocks.thisRepN,Blocks.thisTrialN,Blocks.thisN,Blocks.thisIndex,Blocks.ran,Encoding_Resp.rt,AttnResp_keys.keys,AttnResp_keys.rt,Enc_Break_Resp.keys,Enc_Break_Resp.rt,Enc_Break_Loop.thisRepN,Enc_Break_Loop.thisTrialN,Enc_Break_Loop.thisN,Enc_Break_Loop.thisIndex,Enc_Break_Loop.ran,AttnCheck,Group_Order.thisRepN,Group_Order.thisTrialN,Group_Order.thisN,Group_Order.thisIndex,Group_Order.ran,blockFile,attnFile,Enc_Break_Loop2.thisRepN,Enc_Break_Loop2.thisTrialN,Enc_Break_Loop2.thisN,Enc_Break_Loop2.thisIndex,Enc_Break_Loop2.ran,Nback_Resp.rt,DBack_Loop.thisRepN,DBack_Loop.thisTrialN,DBack_Loop.thisN,DBack_Loop.thisIndex,DBack_Loop.ran,DBlock_Loop.thisRepN,DBlock_Loop.thisTrialN,DBlock_Loop.thisN,DBlock_Loop.thisIndex,DBlock_Loop.ran
0,0,0,0,1,NaN,NaN,NaN,NaN,welcome,NaN,NaN,press SPACE to continue,Empty.png,258,1,2023-12-04_11h05.06.449,Online_SceneSrcMD_E,2020.2.10,MacIntel,60,,,,,,,,,,,,,,,,,,,,,,,,,,,,,,,,,,,,,,,,,,,,,,,,,,,,,,,,,,,,,,,,,,,,,,,,,,,,,,,,,,,,
0,1,1,1,1,NaN,NaN,NaN,in this experiment you will categorize images and symbols.,NaN,NaN,NaN,press SPACE to continue,Empty.png,258,1,2023-12-04_11h05.06.449,Online_SceneSrcMD_E,2020.2.10,MacIntel,60,,,,,,,,,,,,,,,,,,,,,,,,,,,,,,,,,,,,,,,,,,,,,,,,,,,,,,,,,,,,,,,,,,,,,,,,,,,,,,,,,,,,
0,2,2,2,1,"during the image categorization task, scenes will be presented on the screen one at a time.",NaN,NaN,each scene will be surrounded by a colored frame.,NaN,your task is to view each image and report if the frame color appears in the scene.,NaN,press SPACE to continue,Empty.png,258,1,2023-12-04_11h05.06.449,Online_SceneSrcMD_E,2020.2.10,MacIntel,60,,,,,,,,,,,,,,,,,,,,,,,,,,,,,,,,,,,,,,,,,,,,,,,,,,,,,,,,,,,,,,,,,,,,,,,,,,,,,,,,,,,,
0,3,3,3,1,"if the frame color is present in the scene, press 'P'.","otherwise, press 'Q'.",NaN,each image will be presented for four seconds.,NaN,please respond during this time.,NaN,press SPACE to continue,Empty.png,258,1,2023-12-04_11h05.06.449,Online_SceneSrcMD_E,2020.2.10,MacIntel,60,,,,,,,,,,,,,,,,,,,,,,,,,,,,,,,,,,,,,,,,,,,,,,,,,,,,,,,,,,,,,,,,,,,,,,,,,,,,,,,,,,,,
0,4,4,4,1,NaN,NaN,NaN,three blocks of images will be presented.,NaN,"after each block, you will have the option to take a short break.",NaN,press SPACE to continue,Empty.png,258,1,2023-12-04_11h05.06.449,Online_SceneSrcMD_E,2020.2.10,MacIntel,60,,,,,,,,,,,,,,,,,,,,,,,,,,,,,,,,,,,,,,,,,,,,,,,,,,,,,,,,,,,,,,,,,,,,,,,,,,,,,,,,,,,,
0,5,5,5,1,some of the images will portray scenes with emotional content.,NaN,NaN,if you become uncomfortable please remember that you can leave the experiment at any point without penalty.,NaN,NaN,NaN,press SPACE to continue,Empty.png,258,1,2023-12-04_11h05.06.449,Online_SceneSrcMD_E,2020.2.10,MacIntel,60,,,,,,,,,,,,,,,,,,,,,,,,,,,,,,,,,,,,,,,,,,,,,,,,,,,,,,,,,,,,,,,,,,,,,,,,,,,,,,,,,,,,
0,6,6,6,1,example of an image depicting a scene with emotional content:,NaN,NaN,NaN,NaN,NaN,'P' would be the correct response as blue appears in the scene.,press SPACE to continue,TS08.png,258,1,2023-12-04_11h05.06.449,Online_SceneSrcMD_E,2020.2.10,MacIntel,60,,,,,,,,,,,,,,,,,,,,,,,,,,,,,,,,,,,,,,,,,,,,,,,,,,,,,,,,,,,,,,,,,,,,,,,,,,,,,,,,,,,,
0,7,7,7,1,example of an image depicting a scene with neutral content:,NaN,NaN,NaN,NaN,NaN,'Q' would be the correct response as red does not appear in the scene.,press SPACE to continue,TS06.png,258,1,2023-12-04_11h05.06.449,Online_SceneSrcMD_E,2020.2.10,MacIntel,60,,,,,,,,,,,,,,,,,,,,,,,,,,,,,,,,,,,,,,,,,,,,,,,,,,,,,,,,,,,,,,,,,,,,,,,,,,,,,,,,,,,,
0,8,8,8,1,NaN,NaN,NaN,"after seeing both blocks of images, you will complete a symbol categorization task.",NaN,NaN,NaN,press SPACE to continue,Empty.png,258,1,2023-12-04_11h05.06.449,Online_SceneSrcMD_E,2020.2.10,MacIntel,60,,,,,,,,,,,,,,,,,,,,,,,,,,,,,,,,,,,,,,,,,,,,,,,,,,,,,,,,,,,,,,,,,,,,,,,,,,,,,,,,,,,,
0,9,9,9,1,"during the symbol categorization task, symbols will be presented on the screen one at a time.",NaN,NaN,NaN,NaN,your task is to view each symbol and report its identity.,NaN,press SPACE to continue,Empty.png,258,1,2023-12-04_11h05.06.449,Online_SceneSrcMD_E,2020.2.10,MacIntel,60,,,,,,,,,,,,,,,,,,,,,,,,,,,,,,,,,,,,,,,,,,,,,,,,,,,,,,,,,,,,,,,,,,,,,,,,,,,,,,,,,,,,
0,10,10,10,1,"if you see a number, press 'N'","if you see an alphabetical letter, press 'A'",NaN,each symbol will be presented for three seconds.,NaN,please respond during this time.,NaN,press SPACE to continue,Empty.png,258,1,2023-12-04_11h05.06.449,Online_SceneSrcMD_E,2020.2.10,MacIntel,60,,,,,,,,,,,,,,,,,,,,,,,,,,,,,,,,,,,,,,,,,,,,,,,,,,,,,,,,,,,,,,,,,,,,,,,,,,,,,,,,,,,,
0,11,11,11,1,NaN,NaN,NaN,three blocks will be presented -- there will be no breaks in between the three blocks.,NaN,NaN,NaN,press SPACE to continue,Empty.png,258,1,2023-12-04_11h05.06.449,Online_SceneSrcMD_E,2020.2.10,MacIntel,60,,,,,,,,,,,,,,,,,,,,,,,,,,,,,,,,,,,,,,,,,,,,,,,,,,,,,,,,,,,,,,,,,,,,,,,,,,,,,,,,,,,,
0,12,12,12,1,example of a number:,NaN,NaN,NaN,3,NaN,'N' would be the correct response as the symbol is a number.,press SPACE to continue,Empty.png,258,1,2023-12-04_11h05.06.449,Online_SceneSrcMD_E,2020.2.10,MacIntel,60,,,,,,,,,,,,,,,,,,,,,,,,,,,,,,,,,,,,,,,,,,,,,,,,,,,,,,,,,,,,,,,,,,,,,,,,,,,,,,,,,,,,
0,13,13,13,1,example of a alphabetical letter:,NaN,NaN,NaN,C,NaN,'A' would be the correct response as the symbol is a letter.,press SPACE to continue,Empty.png,258,1,2023-12-04_11h05.06.449,Online_SceneSrcMD_E,2020.2.10,MacIntel,60,,,,,,,,,,,,,,,,,,,,,,,,,,,,,,,,,,,,,,,,,,,,,,,,,,,,,,,,,,,,,,,,,,,,,,,,,,,,,,,,,,,,
0,14,14,14,1,NaN,NaN,NaN,this is the end of the instructions,NaN,NaN,NaN,press SPACE to continue,Empty.png,258,1,2023-12-04_11h05.06.449,Online_SceneSrcMD_E,2020.2.10,MacIntel,60,,,,,,,,,,,,,,,,,,,,,,,,,,,,,,,,,,,,,,,,,,,,,,,,,,,,,,,,,,,,,,,,,,,,,,,,,,,,,,,,,,,,
,,,,,,,,,,,,,,258,1,2023-12-04_11h05.06.449,Online_SceneSrcMD_E,2020.2.10,MacIntel,60,p,14.9637,space,37.2231,,0,0,0,0,0,1,TS01.png,p,,,,,,,,,,,,,,,,,,,,,,,,,,,,,,,,,,,,,,,,,,,,,,,,,,,,,,,,,,,,,,,,,,,,,,,
,,,,,,,,,,,,,,258,1,2023-12-04_11h05.06.449,Online_SceneSrcMD_E,2020.2.10,MacIntel,60,,,,,,0,0,1,1,1,1,TS02.png,p,,,,,,,,,,,,,,,,,,,,,,,,,,,,,,,,,,,,,,,,,,,,,,,,,,,,,,,,,,,,,,,,,,,,,,,
,,,,,,,,,,,,,,258,1,2023-12-04_11h05.06.449,Online_SceneSrcMD_E,2020.2.10,MacIntel,60,,,,,,0,0,2,2,2,1,TS05.png,p,,,,,,,,,,,,,,,,,,,,,,,,,,,,,,,,,,,,,,,,,,,,,,,,,,,,,,,,,,,,,,,,,,,,,,,
,,,,,,,,,,,,,,258,1,2023-12-04_11h05.06.449,Online_SceneSrcMD_E,2020.2.10,MacIntel,60,,,,,,0,0,3,3,3,1,TS06.png,q,,,,,,,,,,,,,,,,,,,,,,,,,,,,,,,,,,,,,,,,,,,,,,,,,,,,,,,,,,,,,,,,,,,,,,,
,,,,,,,,,,,,,,258,1,2023-12-04_11h05.06.449,Online_SceneSrcMD_E,2020.2.10,MacIntel,60,,,,,,,,,,,,,,space,3.2267,0,0,0,0,1,,,,,,,,,,,,,,,,,,,,,,,,,,,,,,,,,,,,,,,,,,,,,,,,,,,,,,,,,,,,,,,,
,,,,,,,,,,,,,,258,1,2023-12-04_11h05.06.449,Online_SceneSrcMD_E,2020.2.10,MacIntel,60,,,,,,,,,,,,,,,,,,,,,0,0,0,0,1,PracticeONE.csv,,,,,,,,,,,,,,,,,,,,,,,,,,,,,,,,,,,,,,,,,,,,,,,,,,,,,,,,,,
,,,,,,,,,,,,,,258,1,2023-12-04_11h05.06.449,Online_SceneSrcMD_E,2020.2.10,MacIntel,60,,,,,,0,0,0,0,0,1,TS03.png,p,,,,,,,,,,,,,,,,,,,,,,,,,,,,,,,,,,,,,,,,,,,,,,,,,,,,,,,,,,,,,,,,,,,,,,,
,,,,,,,,,,,,,,258,1,2023-12-04_11h05.06.449,Online_SceneSrcMD_E,2020.2.10,MacIntel,60,,,,,,0,0,1,1,1,1,TS04.png,p,,,,,,,,,,,,,,,,,,,,,,,,,,,,,,,,,,,,,,,,,,,,,,,,,,,,,,,,,,,,,,,,,,,,,,,
,,,,,,,,,,,,,,258,1,2023-12-04_11h05.06.449,Online_SceneSrcMD_E,2020.2.10,MacIntel,60,,,,,,0,0,2,2,2,1,TS07.png,p,,,,,,,,,,,,,,,,,,,,,,,,,,,,,,,,,,,,,,,,,,,,,,,,,,,,,,,,,,,,,,,,,,,,,,,
,,,,,,,,,,,,,,258,1,2023-12-04_11h05.06.449,Online_SceneSrcMD_E,2020.2.10,MacIntel,60,,,,,,0,0,3,3,3,1,TS08.png,p,,,,,,,,,,,,,,,,,,,,,,,,,,,,,,,,,,,,,,,,,,,,,,,,,,,,,,,,,,,,,,,,,,,,,,,
,,,,,,,,,,,,,,258,1,2023-12-04_11h05.06.449,Online_SceneSrcMD_E,2020.2.10,MacIntel,60,,,,,,,,,,,,,,,,,,,,,0,1,1,1,1,PracticeTWO.csv,,,,,,,,,,,,,,,,,,,,,,,,,,,,,,,,,,,,,,,,,,,,,,,,,,,,,,,,,,
,,,,,,,,,,,,,,258,1,2023-12-04_11h05.06.449,Online_SceneSrcMD_E,2020.2.10,MacIntel,60,,,,,,,,,,,,,,,,,,,,,,,,,,,space,6.5922,,0,0,0,0,0,1,2,n,White,,,,,,,,,,,,,,,,,,,,,,,,,,,,,,,,,,,,,,,,,,,,,,
,,,,,,,,,,,,,,258,1,2023-12-04_11h05.06.449,Online_SceneSrcMD_E,2020.2.10,MacIntel,60,,,,,,,,,,,,,,,,,,,,,,,,,,,,,,0,0,1,1,1,1,8,n,White,,,,,,,,,,,,,,,,,,,,,,,,,,,,,,,,,,,,,,,,,,,,,,
,,,,,,,,,,,,,,258,1,2023-12-04_11h05.06.449,Online_SceneSrcMD_E,2020.2.10,MacIntel,60,,,,,,,,,,,,,,,,,,,,,,,,,,,,,,0,0,2,2,2,1,S,a,White,,,,,,,,,,,,,,,,,,,,,,,,,,,,,,,,,,,,,,,,,,,,,,
,,,,,,,,,,,,,,258,1,2023-12-04_11h05.06.449,Online_SceneSrcMD_E,2020.2.10,MacIntel,60,,,,,,,,,,,,,,,,,,,,,,,,,,,,,,0,0,3,3,3,1,J,a,White,,,,,,,,,,,,,,,,,,,,,,,,,,,,,,,,,,,,,,,,,,,,,,
,,,,,,,,,,,,,,258,1,2023-12-04_11h05.06.449,Online_SceneSrcMD_E,2020.2.10,MacIntel,60,,,,,,,,,,,,,,,,,,,,,,,,,,,,,,0,0,4,4,4,1,6,n,White,,,,,,,,,,,,,,,,,,,,,,,,,,,,,,,,,,,,,,,,,,,,,,
,,,,,,,,,,,,,,258,1,2023-12-04_11h05.06.449,Online_SceneSrcMD_E,2020.2.10,MacIntel,60,,,,,,,,,,,,,,,,,,,,,,,,,,,,,,,,,,,,,,,0,0,0,0,1,Practice_ZeroBlock.csv,Practice Block 1,,,,,,,,,,,,,,,,,,,,,,,,,,,,,,,,,,,,,,,
,,,,,,,,,,,,,,258,1,2023-12-04_11h05.06.449,Online_SceneSrcMD_E,2020.2.10,MacIntel,60,,,,,,,,,,,,,,,,,,,,,,,,,,,,,,0,0,0,0,0,1,F,a,White,,,,,,,,,,,,,,,,,,,,,,,,,,,,,,,,,,,,,,,,,,,,,,
,,,,,,,,,,,,,,258,1,2023-12-04_11h05.06.449,Online_SceneSrcMD_E,2020.2.10,MacIntel,60,,,,,,,,,,,,,,,,,,,,,,,,,,,,,,0,0,1,1,1,1,H,a,White,,,,,,,,,,,,,,,,,,,,,,,,,,,,,,,,,,,,,,,,,,,,,,
,,,,,,,,,,,,,,258,1,2023-12-04_11h05.06.449,Online_SceneSrcMD_E,2020.2.10,MacIntel,60,,,,,,,,,,,,,,,,,,,,,,,,,,,,,,0,0,2,2,2,1,X,a,White,,,,,,,,,,,,,,,,,,,,,,,,,,,,,,,,,,,,,,,,,,,,,,
,,,,,,,,,,,,,,258,1,2023-12-04_11h05.06.449,Online_SceneSrcMD_E,2020.2.10,MacIntel,60,,,,,,,,,,,,,,,,,,,,,,,,,,,,,,0,0,3,3,3,1,5,n,White,,,,,,,,,,,,,,,,,,,,,,,,,,,,,,,,,,,,,,,,,,,,,,
,,,,,,,,,,,,,,258,1,2023-12-04_11h05.06.449,Online_SceneSrcMD_E,2020.2.10,MacIntel,60,,,,,,,,,,,,,,,,,,,,,,,,,,,,,,0,0,4,4,4,1,1,n,White,,,,,,,,,,,,,,,,,,,,,,,,,,,,,,,,,,,,,,,,,,,,,,
,,,,,,,,,,,,,,258,1,2023-12-04_11h05.06.449,Online_SceneSrcMD_E,2020.2.10,MacIntel,60,,,,,,,,,,,,,,,,,,,,,,,,,,,,,,,,,,,,,,,0,1,1,1,1,Practice_OneBlock.csv,Practice Block 2,,,,,,,,,,,,,,,,,,,,,,,,,,,,,,,,,,,,,,,
,,,,,,,,,,,,,,258,1,2023-12-04_11h05.06.449,Online_SceneSrcMD_E,2020.2.10,MacIntel,60,,,,,,,,,,,,,,,,,,,,,,,,,,,,,,0,0,0,0,0,1,2,n,White,,,,,,,,,,,,,,,,,,,,,,,,,,,,,,,,,,,,,,,,,,,,,,
,,,,,,,,,,,,,,258,1,2023-12-04_11h05.06.449,Online_SceneSrcMD_E,2020.2.10,MacIntel,60,,,,,,,,,,,,,,,,,,,,,,,,,,,,,,0,0,1,1,1,1,V,a,White,,,,,,,,,,,,,,,,,,,,,,,,,,,,,,,,,,,,,,,,,,,,,,
,,,,,,,,,,,,,,258,1,2023-12-04_11h05.06.449,Online_SceneSrcMD_E,2020.2.10,MacIntel,60,,,,,,,,,,,,,,,,,,,,,,,,,,,,,,0,0,2,2,2,1,5,n,White,,,,,,,,,,,,,,,,,,,,,,,,,,,,,,,,,,,,,,,,,,,,,,
,,,,,,,,,,,,,,258,1,2023-12-04_11h05.06.449,Online_SceneSrcMD_E,2020.2.10,MacIntel,60,,,,,,,,,,,,,,,,,,,,,,,,,,,,,,0,0,3,3,3,1,2,n,White,,,,,,,,,,,,,,,,,,,,,,,,,,,,,,,,,,,,,,,,,,,,,,
,,,,,,,,,,,,,,258,1,2023-12-04_11h05.06.449,Online_SceneSrcMD_E,2020.2.10,MacIntel,60,,,,,,,,,,,,,,,,,,,,,,,,,,,,,,0,0,4,4,4,1,F,a,White,,,,,,,,,,,,,,,,,,,,,,,,,,,,,,,,,,,,,,,,,,,,,,
,,,,,,,,,,,,,,258,1,2023-12-04_11h05.06.449,Online_SceneSrcMD_E,2020.2.10,MacIntel,60,,,,,,,,,,,,,,,,,,,,,,,,,,,,,,,,,,,,,,,0,2,2,2,1,Practice_TwoBlock.csv,Practice Block 3,,,,,,,,,,,,,,,,,,,,,,,,,,,,,,,,,,,,,,,
,,,,,,,,,,,,,,258,1,2023-12-04_11h05.06.449,Online_SceneSrcMD_E,2020.2.10,MacIntel,60,,,space,9.4648,,0,,,,,,N2-9913comp.png,p,,,,,,,,,,,,,,,,,,,,,,,,,,,,,,,,,0,0,0,0,1,,,,,,,,,,,,,,,,,,,,,,,,,,,,,,,,,,
,,,,,,,,,,,,,,258,1,2023-12-04_11h05.06.449,Online_SceneSrcMD_E,2020.2.10,MacIntel,60,,,,,,0,,,,,,E2-9921comp.png,q,,,,,,,,,,,,,,,,,,,,,,,,,,,,,,,,,0,1,1,1,1,,,,,,,,,,,,,,,,,,,,,,,,,,,,,,,,,,
,,,,,,,,,,,,,,258,1,2023-12-04_11h05.06.449,Online_SceneSrcMD_E,2020.2.10,MacIntel,60,,,,,,0,,,,,,N2-8160comp.png,p,,,,,,,,,,,,,,,,,,,,,,,,,,,,,,,,,0,2,2,2,1,,,,,,,,,,,,,,,,,,,,,,,,,,,,,,,,,,
,,,,,,,,,,,,,,258,1,2023-12-04_11h05.06.449,Online_SceneSrcMD_E,2020.2.10,MacIntel,60,,,,,p,1,,,,,,E2-6415comp.png,p,,,,,,,,,,,,,,,,,,,,,,,,,,,,,,,,,0,3,3,3,1,2.0065,,,,,,,,,,,,,,,,,,,,,,,,,,,,,,,,,
,,,,,,,,,,,,,,258,1,2023-12-04_11h05.06.449,Online_SceneSrcMD_E,2020.2.10,MacIntel,60,,,,,p,1,,,,,,N2-5395comp.png,p,,,,,,,,,,,,,,,,,,,,,,,,,,,,,,,,,0,4,4,4,1,0.9905,,,,,,,,,,,,,,,,,,,,,,,,,,,,,,,,,
,,,,,,,,,,,,,,258,1,2023-12-04_11h05.06.449,Online_SceneSrcMD_E,2020.2.10,MacIntel,60,,,,,p,1,,,,,,E2-3350comp.png,p,,,,,,,,,,,,,,,,,,,,,,,,,,,,,,,,,0,5,5,5,1,1.6563,,,,,,,,,,,,,,,,,,,,,,,,,,,,,,,,,
,,,,,,,,,,,,,,258,1,2023-12-04_11h05.06.449,Online_SceneSrcMD_E,2020.2.10,MacIntel,60,,,,,p,0,,,,,,N2-1600comp.png,q,,,,,,,,,,,,,,,,,,,,,,,,,,,,,,,,,0,6,6,6,1,2.2745,,,,,,,,,,,,,,,,,,,,,,,,,,,,,,,,,
,,,,,,,,,,,,,,258,1,2023-12-04_11h05.06.449,Online_SceneSrcMD_E,2020.2.10,MacIntel,60,,,,,p,0,,,,,,N2-7550comp.png,q,,,,,,,,,,,,,,,,,,,,,,,,,,,,,,,,,0,7,7,7,1,1.4116,,,,,,,,,,,,,,,,,,,,,,,,,,,,,,,,,
,,,,,,,,,,,,,,258,1,2023-12-04_11h05.06.449,Online_SceneSrcMD_E,2020.2.10,MacIntel,60,,,,,p,0,,,,,,E2-6243comp.png,q,,,,,,,,,,,,,,,,,,,,,,,,,,,,,,,,,0,8,8,8,1,1.5554,,,,,,,,,,,,,,,,,,,,,,,,,,,,,,,,,
,,,,,,,,,,,,,,258,1,2023-12-04_11h05.06.449,Online_SceneSrcMD_E,2020.2.10,MacIntel,60,,,,,p,1,,,,,,N2-2840comp.png,p,,,,,,,,,,,,,,,,,,,,,,,,,,,,,,,,,0,9,9,9,1,1.1587,,,,,,,,,,,,,,,,,,,,,,,,,,,,,,,,,
,,,,,,,,,,,,,,258,1,2023-12-04_11h05.06.449,Online_SceneSrcMD_E,2020.2.10,MacIntel,60,,,,,p,1,,,,,,E2-2716comp.png,p,,,,,,,,,,,,,,,,,,,,,,,,,,,,,,,,,0,10,10,10,1,0.8729,,,,,,,,,,,,,,,,,,,,,,,,,,,,,,,,,
,,,,,,,,,,,,,,258,1,2023-12-04_11h05.06.449,Online_SceneSrcMD_E,2020.2.10,MacIntel,60,,,,,p,0,,,,,,N2-6570_2comp.png,q,,,,,,,,,,,,,,,,,,,,,,,,,,,,,,,,,0,11,11,11,1,0.8463,,,,,,,,,,,,,,,,,,,,,,,,,,,,,,,,,
,,,,,,,,,,,,,,258,1,2023-12-04_11h05.06.449,Online_SceneSrcMD_E,2020.2.10,MacIntel,60,,,,,p,0,,,,,,E2-2900_1comp.png,q,,,,,,,,,,,,,,,,,,,,,,,,,,,,,,,,,0,12,12,12,1,0.708,,,,,,,,,,,,,,,,,,,,,,,,,,,,,,,,,
,,,,,,,,,,,,,,258,1,2023-12-04_11h05.06.449,Online_SceneSrcMD_E,2020.2.10,MacIntel,60,,,,,p,0,,,,,,N2-2594comp.png,q,,,,,,,,,,,,,,,,,,,,,,,,,,,,,,,,,0,13,13,13,1,0.5725,,,,,,,,,,,,,,,,,,,,,,,,,,,,,,,,,
,,,,,,,,,,,,,,258,1,2023-12-04_11h05.06.449,Online_SceneSrcMD_E,2020.2.10,MacIntel,60,,,,,p,1,,,,,,E2-9420comp.png,p,,,,,,,,,,,,,,,,,,,,,,,,,,,,,,,,,0,14,14,14,1,0.5407,,,,,,,,,,,,,,,,,,,,,,,,,,,,,,,,,
,,,,,,,,,,,,,,258,1,2023-12-04_11h05.06.449,Online_SceneSrcMD_E,2020.2.10,MacIntel,60,,,,,p,1,,,,,,N2-5779comp.png,p,,,,,,,,,,,,,,,,,,,,,,,,,,,,,,,,,0,15,15,15,1,0.5811,,,,,,,,,,,,,,,,,,,,,,,,,,,,,,,,,
,,,,,,,,,,,,,,258,1,2023-12-04_11h05.06.449,Online_SceneSrcMD_E,2020.2.10,MacIntel,60,,,,,p,1,,,,,,E2-1932comp.png,p,,,,,,,,,,,,,,,,,,,,,,,,,,,,,,,,,0,16,16,16,1,0.4586,,,,,,,,,,,,,,,,,,,,,,,,,,,,,,,,,
,,,,,,,,,,,,,,258,1,2023-12-04_11h05.06.449,Online_SceneSrcMD_E,2020.2.10,MacIntel,60,,,,,p,0,,,,,,E2-9582comp.png,q,,,,,,,,,,,,,,,,,,,,,,,,,,,,,,,,,0,17,17,17,1,0.6581,,,,,,,,,,,,,,,,,,,,,,,,,,,,,,,,,
,,,,,,,,,,,,,,258,1,2023-12-04_11h05.06.449,Online_SceneSrcMD_E,2020.2.10,MacIntel,60,,,,,p,0,,,,,,N2-2620comp.png,q,,,,,,,,,,,,,,,,,,,,,,,,,,,,,,,,,0,18,18,18,1,0.6891,,,,,,,,,,,,,,,,,,,,,,,,,,,,,,,,,
,,,,,,,,,,,,,,258,1,2023-12-04_11h05.06.449,Online_SceneSrcMD_E,2020.2.10,MacIntel,60,,,,,p,0,,,,,,E2-7380comp.png,q,,,,,,,,,,,,,,,,,,,,,,,,,,,,,,,,,0,19,19,19,1,0.5732,,,,,,,,,,,,,,,,,,,,,,,,,,,,,,,,,
,,,,,,,,,,,,,,258,1,2023-12-04_11h05.06.449,Online_SceneSrcMD_E,2020.2.10,MacIntel,60,,,,,,,,,,,,,,,,,,,,,,,,,,,,,,,,,,,,,,,,,,,,,,,,,,,,"[""1"",""5"",""3"",""4""]","[12.533999999999992,16.070099999994113,17.067799999982185,17.48579999998219]",space,3.2781,0,0,0,0,1,Attn_Colored.png,,,,,,,,,,,,,,,,,,,,,,,
,,,,,,,,,,,,,,258,1,2023-12-04_11h05.06.449,Online_SceneSrcMD_E,2020.2.10,MacIntel,60,,,,,,,,,,,,,,,,,,,,,,,,,,,,,,,,,,,,,,,,,,,,,,,,,,,,,,,,,,,,,,0,0,0,0,1,BlockFour.csv,ColorCheck.csv,,,,,,,,,,,,,,,,
,,,,,,,,,,,,,,258,1,2023-12-04_11h05.06.449,Online_SceneSrcMD_E,2020.2.10,MacIntel,60,,,,,p,1,,,,,,N2-1661comp.png,p,,,,,,,,,,,,,,,,,,,,,,,,,,,,,,,,,0,0,0,0,1,1.7578,,,,,,,,,,,,,,,,,,,,,,,,,,,,,,,,,
,,,,,,,,,,,,,,258,1,2023-12-04_11h05.06.449,Online_SceneSrcMD_E,2020.2.10,MacIntel,60,,,,,p,1,,,,,,E2-9340comp.png,p,,,,,,,,,,,,,,,,,,,,,,,,,,,,,,,,,0,1,1,1,1,1.3395,,,,,,,,,,,,,,,,,,,,,,,,,,,,,,,,,
,,,,,,,,,,,,,,258,1,2023-12-04_11h05.06.449,Online_SceneSrcMD_E,2020.2.10,MacIntel,60,,,,,p,1,,,,,,N2-2512comp.png,p,,,,,,,,,,,,,,,,,,,,,,,,,,,,,,,,,0,2,2,2,1,0.7646,,,,,,,,,,,,,,,,,,,,,,,,,,,,,,,,,
,,,,,,,,,,,,,,258,1,2023-12-04_11h05.06.449,Online_SceneSrcMD_E,2020.2.10,MacIntel,60,,,,,p,0,,,,,,E2-3261comp.png,q,,,,,,,,,,,,,,,,,,,,,,,,,,,,,,,,,0,3,3,3,1,1.1917,,,,,,,,,,,,,,,,,,,,,,,,,,,,,,,,,
,,,,,,,,,,,,,,258,1,2023-12-04_11h05.06.449,Online_SceneSrcMD_E,2020.2.10,MacIntel,60,,,,,p,0,,,,,,N2-2270comp.png,q,,,,,,,,,,,,,,,,,,,,,,,,,,,,,,,,,0,4,4,4,1,0.7248,,,,,,,,,,,,,,,,,,,,,,,,,,,,,,,,,
,,,,,,,,,,,,,,258,1,2023-12-04_11h05.06.449,Online_SceneSrcMD_E,2020.2.10,MacIntel,60,,,,,p,1,,,,,,E2-9040comp.png,p,,,,,,,,,,,,,,,,,,,,,,,,,,,,,,,,,0,5,5,5,1,0.6579,,,,,,,,,,,,,,,,,,,,,,,,,,,,,,,,,
,,,,,,,,,,,,,,258,1,2023-12-04_11h05.06.449,Online_SceneSrcMD_E,2020.2.10,MacIntel,60,,,,,p,1,,,,,,N2-4603comp.png,p,,,,,,,,,,,,,,,,,,,,,,,,,,,,,,,,,0,6,6,6,1,0.4892,,,,,,,,,,,,,,,,,,,,,,,,,,,,,,,,,
,,,,,,,,,,,,,,258,1,2023-12-04_11h05.06.449,Online_SceneSrcMD_E,2020.2.10,MacIntel,60,,,,,p,0,,,,,,E2-9140comp.png,q,,,,,,,,,,,,,,,,,,,,,,,,,,,,,,,,,0,7,7,7,1,0.8164,,,,,,,,,,,,,,,,,,,,,,,,,,,,,,,,,
,,,,,,,,,,,,,,258,1,2023-12-04_11h05.06.449,Online_SceneSrcMD_E,2020.2.10,MacIntel,60,,,,,p,1,,,,,,E2-9410comp.png,p,,,,,,,,,,,,,,,,,,,,,,,,,,,,,,,,,0,8,8,8,1,0.5554,,,,,,,,,,,,,,,,,,,,,,,,,,,,,,,,,
,,,,,,,,,,,,,,258,1,2023-12-04_11h05.06.449,Online_SceneSrcMD_E,2020.2.10,MacIntel,60,,,,,p,0,,,,,,N2-5875comp.png,q,,,,,,,,,,,,,,,,,,,,,,,,,,,,,,,,,0,9,9,9,1,0.4002,,,,,,,,,,,,,,,,,,,,,,,,,,,,,,,,,
,,,,,,,,,,,,,,258,1,2023-12-04_11h05.06.449,Online_SceneSrcMD_E,2020.2.10,MacIntel,60,,,,,p,0,,,,,,N2-8465comp.png,q,,,,,,,,,,,,,,,,,,,,,,,,,,,,,,,,,0,10,10,10,1,0.3998,,,,,,,,,,,,,,,,,,,,,,,,,,,,,,,,,
,,,,,,,,,,,,,,258,1,2023-12-04_11h05.06.449,Online_SceneSrcMD_E,2020.2.10,MacIntel,60,,,,,p,1,,,,,,E2-9424comp.png,p,,,,,,,,,,,,,,,,,,,,,,,,,,,,,,,,,0,11,11,11,1,0.5112,,,,,,,,,,,,,,,,,,,,,,,,,,,,,,,,,
,,,,,,,,,,,,,,258,1,2023-12-04_11h05.06.449,Online_SceneSrcMD_E,2020.2.10,MacIntel,60,,,,,p,1,,,,,,N2-1910comp.png,p,,,,,,,,,,,,,,,,,,,,,,,,,,,,,,,,,0,12,12,12,1,0.5208,,,,,,,,,,,,,,,,,,,,,,,,,,,,,,,,,
,,,,,,,,,,,,,,258,1,2023-12-04_11h05.06.449,Online_SceneSrcMD_E,2020.2.10,MacIntel,60,,,,,p,0,,,,,,E2-9500comp.png,q,,,,,,,,,,,,,,,,,,,,,,,,,,,,,,,,,0,13,13,13,1,0.3075,,,,,,,,,,,,,,,,,,,,,,,,,,,,,,,,,
,,,,,,,,,,,,,,258,1,2023-12-04_11h05.06.449,Online_SceneSrcMD_E,2020.2.10,MacIntel,60,,,,,p,0,,,,,,E2-6540comp.png,q,,,,,,,,,,,,,,,,,,,,,,,,,,,,,,,,,0,14,14,14,1,0.5099,,,,,,,,,,,,,,,,,,,,,,,,,,,,,,,,,
,,,,,,,,,,,,,,258,1,2023-12-04_11h05.06.449,Online_SceneSrcMD_E,2020.2.10,MacIntel,60,,,,,p,0,,,,,,N2-2616comp.png,q,,,,,,,,,,,,,,,,,,,,,,,,,,,,,,,,,0,15,15,15,1,0.4079,,,,,,,,,,,,,,,,,,,,,,,,,,,,,,,,,
,,,,,,,,,,,,,,258,1,2023-12-04_11h05.06.449,Online_SceneSrcMD_E,2020.2.10,MacIntel,60,,,,,p,0,,,,,,N2-2221comp.png,q,,,,,,,,,,,,,,,,,,,,,,,,,,,,,,,,,0,16,16,16,1,0.4312,,,,,,,,,,,,,,,,,,,,,,,,,,,,,,,,,
,,,,,,,,,,,,,,258,1,2023-12-04_11h05.06.449,Online_SceneSrcMD_E,2020.2.10,MacIntel,60,,,,,p,0,,,,,,E2-8230comp.png,q,,,,,,,,,,,,,,,,,,,,,,,,,,,,,,,,,0,17,17,17,1,0.4398,,,,,,,,,,,,,,,,,,,,,,,,,,,,,,,,,
,,,,,,,,,,,,,,258,1,2023-12-04_11h05.06.449,Online_SceneSrcMD_E,2020.2.10,MacIntel,60,,,,,p,0,,,,,,N2-2499comp.png,q,,,,,,,,,,,,,,,,,,,,,,,,,,,,,,,,,0,18,18,18,1,0.5405,,,,,,,,,,,,,,,,,,,,,,,,,,,,,,,,,
,,,,,,,,,,,,,,258,1,2023-12-04_11h05.06.449,Online_SceneSrcMD_E,2020.2.10,MacIntel,60,,,,,p,0,,,,,,E2-9622comp.png,q,,,,,,,,,,,,,,,,,,,,,,,,,,,,,,,,,0,19,19,19,1,0.4315,,,,,,,,,,,,,,,,,,,,,,,,,,,,,,,,,
,,,,,,,,,,,,,,258,1,2023-12-04_11h05.06.449,Online_SceneSrcMD_E,2020.2.10,MacIntel,60,,,,,,,,,,,,,,,,,,,,,,,,,,,,,,,,,,,,,,,,,,,,,,,,,,,,,,space,0.7661,,,,,,,,,,,,,,0,0,0,0,1,,,,,,,,,,,
,,,,,,,,,,,,,,258,1,2023-12-04_11h05.06.449,Online_SceneSrcMD_E,2020.2.10,MacIntel,60,,,,,,,,,,,,,,,,,,,,,,,,,,,,,,,,,,,,,,,,,,,,,,,,,,,,,,,,,,,,,,0,1,1,1,1,BlockFive.csv,ColorCheck.csv,,,,,,,,,,,,,,,,
,,,,,,,,,,,,,,258,1,2023-12-04_11h05.06.449,Online_SceneSrcMD_E,2020.2.10,MacIntel,60,,,,,p,1,,,,,,E2-9230comp.png,p,,,,,,,,,,,,,,,,,,,,,,,,,,,,,,,,,0,0,0,0,1,0.5886,,,,,,,,,,,,,,,,,,,,,,,,,,,,,,,,,
,,,,,,,,,,,,,,258,1,2023-12-04_11h05.06.449,Online_SceneSrcMD_E,2020.2.10,MacIntel,60,,,,,p,1,,,,,,N2-2235comp.png,p,,,,,,,,,,,,,,,,,,,,,,,,,,,,,,,,,0,1,1,1,1,0.4144,,,,,,,,,,,,,,,,,,,,,,,,,,,,,,,,,
,,,,,,,,,,,,,,258,1,2023-12-04_11h05.06.449,Online_SceneSrcMD_E,2020.2.10,MacIntel,60,,,,,p,1,,,,,,N2-8280comp.png,p,,,,,,,,,,,,,,,,,,,,,,,,,,,,,,,,,0,2,2,2,1,0.6321,,,,,,,,,,,,,,,,,,,,,,,,,,,,,,,,,
,,,,,,,,,,,,,,258,1,2023-12-04_11h05.06.449,Online_SceneSrcMD_E,2020.2.10,MacIntel,60,,,,,p,1,,,,,,E2-3266comp.png,p,,,,,,,,,,,,,,,,,,,,,,,,,,,,,,,,,0,3,3,3,1,0.3583,,,,,,,,,,,,,,,,,,,,,,,,,,,,,,,,,
,,,,,,,,,,,,,,258,1,2023-12-04_11h05.06.449,Online_SceneSrcMD_E,2020.2.10,MacIntel,60,,,,,p,1,,,,,,N2-7560comp.png,p,,,,,,,,,,,,,,,,,,,,,,,,,,,,,,,,,0,4,4,4,1,0.515,,,,,,,,,,,,,,,,,,,,,,,,,,,,,,,,,
,,,,,,,,,,,,,,258,1,2023-12-04_11h05.06.449,Online_SceneSrcMD_E,2020.2.10,MacIntel,60,,,,,p,1,,,,,,E2-9920comp.png,p,,,,,,,,,,,,,,,,,,,,,,,,,,,,,,,,,0,5,5,5,1,0.5573,,,,,,,,,,,,,,,,,,,,,,,,,,,,,,,,,
,,,,,,,,,,,,,,258,1,2023-12-04_11h05.06.449,Online_SceneSrcMD_E,2020.2.10,MacIntel,60,,,,,p,1,,,,,,N2-2579comp.png,p,,,,,,,,,,,,,,,,,,,,,,,,,,,,,,,,,0,6,6,6,1,0.472,,,,,,,,,,,,,,,,,,,,,,,,,,,,,,,,,
,,,,,,,,,,,,,,258,1,2023-12-04_11h05.06.449,Online_SceneSrcMD_E,2020.2.10,MacIntel,60,,,,,p,1,,,,,,N2-7491comp.png,p,,,,,,,,,,,,,,,,,,,,,,,,,,,,,,,,,0,7,7,7,1,0.4924,,,,,,,,,,,,,,,,,,,,,,,,,,,,,,,,,
,,,,,,,,,,,,,,258,1,2023-12-04_11h05.06.449,Online_SceneSrcMD_E,2020.2.10,MacIntel,60,,,,,p,0,,,,,,E2-3230comp.png,q,,,,,,,,,,,,,,,,,,,,,,,,,,,,,,,,,0,8,8,8,1,1.033,,,,,,,,,,,,,,,,,,,,,,,,,,,,,,,,,
,,,,,,,,,,,,,,258,1,2023-12-04_11h05.06.449,Online_SceneSrcMD_E,2020.2.10,MacIntel,60,,,,,p,1,,,,,,E2-2683comp.png,p,,,,,,,,,,,,,,,,,,,,,,,,,,,,,,,,,0,9,9,9,1,0.9578,,,,,,,,,,,,,,,,,,,,,,,,,,,,,,,,,
,,,,,,,,,,,,,,258,1,2023-12-04_11h05.06.449,Online_SceneSrcMD_E,2020.2.10,MacIntel,60,,,,,p,1,,,,,,N2-7600comp.png,p,,,,,,,,,,,,,,,,,,,,,,,,,,,,,,,,,0,10,10,10,1,0.8171,,,,,,,,,,,,,,,,,,,,,,,,,,,,,,,,,
,,,,,,,,,,,,,,258,1,2023-12-04_11h05.06.449,Online_SceneSrcMD_E,2020.2.10,MacIntel,60,,,,,p,0,,,,,,E2-3400comp.png,q,,,,,,,,,,,,,,,,,,,,,,,,,,,,,,,,,0,11,11,11,1,0.7587,,,,,,,,,,,,,,,,,,,,,,,,,,,,,,,,,
,,,,,,,,,,,,,,258,1,2023-12-04_11h05.06.449,Online_SceneSrcMD_E,2020.2.10,MacIntel,60,,,,,p,1,,,,,,E2-9265comp.png,p,,,,,,,,,,,,,,,,,,,,,,,,,,,,,,,,,0,12,12,12,1,0.7568,,,,,,,,,,,,,,,,,,,,,,,,,,,,,,,,,
,,,,,,,,,,,,,,258,1,2023-12-04_11h05.06.449,Online_SceneSrcMD_E,2020.2.10,MacIntel,60,,,,,p,1,,,,,,N2-2518comp.png,p,,,,,,,,,,,,,,,,,,,,,,,,,,,,,,,,,0,13,13,13,1,0.4173,,,,,,,,,,,,,,,,,,,,,,,,,,,,,,,,,
,,,,,,,,,,,,,,258,1,2023-12-04_11h05.06.449,Online_SceneSrcMD_E,2020.2.10,MacIntel,60,,,,,p,0,,,,,,E2-3069comp.png,q,,,,,,,,,,,,,,,,,,,,,,,,,,,,,,,,,0,14,14,14,1,0.3737,,,,,,,,,,,,,,,,,,,,,,,,,,,,,,,,,
,,,,,,,,,,,,,,258,1,2023-12-04_11h05.06.449,Online_SceneSrcMD_E,2020.2.10,MacIntel,60,,,,,p,1,,,,,,N2-2200comp.png,p,,,,,,,,,,,,,,,,,,,,,,,,,,,,,,,,,0,15,15,15,1,0.4003,,,,,,,,,,,,,,,,,,,,,,,,,,,,,,,,,
,,,,,,,,,,,,,,258,1,2023-12-04_11h05.06.449,Online_SceneSrcMD_E,2020.2.10,MacIntel,60,,,,,p,1,,,,,,N2-7546comp.png,p,,,,,,,,,,,,,,,,,,,,,,,,,,,,,,,,,0,16,16,16,1,0.4422,,,,,,,,,,,,,,,,,,,,,,,,,,,,,,,,,
,,,,,,,,,,,,,,258,1,2023-12-04_11h05.06.449,Online_SceneSrcMD_E,2020.2.10,MacIntel,60,,,,,p,0,,,,,,E2-3500comp.png,q,,,,,,,,,,,,,,,,,,,,,,,,,,,,,,,,,0,17,17,17,1,0.3903,,,,,,,,,,,,,,,,,,,,,,,,,,,,,,,,,
,,,,,,,,,,,,,,258,1,2023-12-04_11h05.06.449,Online_SceneSrcMD_E,2020.2.10,MacIntel,60,,,,,p,0,,,,,,E2-3170comp.png,q,,,,,,,,,,,,,,,,,,,,,,,,,,,,,,,,,0,18,18,18,1,0.7432,,,,,,,,,,,,,,,,,,,,,,,,,,,,,,,,,
,,,,,,,,,,,,,,258,1,2023-12-04_11h05.06.449,Online_SceneSrcMD_E,2020.2.10,MacIntel,60,,,,,p,1,,,,,,N2-2606comp.png,p,,,,,,,,,,,,,,,,,,,,,,,,,,,,,,,,,0,19,19,19,1,0.6189,,,,,,,,,,,,,,,,,,,,,,,,,,,,,,,,,
,,,,,,,,,,,,,,258,1,2023-12-04_11h05.06.449,Online_SceneSrcMD_E,2020.2.10,MacIntel,60,,,,,,,,,,,,,,,,,,,,,,,,,,,,,,,,,,,,,,,,,,,,,,,,,,,,,,space,1.6078,,,,,,,,,,,,,,0,0,0,0,1,,,,,,,,,,,
,,,,,,,,,,,,,,258,1,2023-12-04_11h05.06.449,Online_SceneSrcMD_E,2020.2.10,MacIntel,60,,,,,,,,,,,,,,,,,,,,,,,,,,,,,,,,,,,,,,,,,,,,,,,,,,,,,,,,,,,,,,0,2,2,2,1,BlockSix.csv,ColorCheck.csv,,,,,,,,,,,,,,,,
,,,,,,,,,,,,,,258,1,2023-12-04_11h05.06.449,Online_SceneSrcMD_E,2020.2.10,MacIntel,60,,,,,,,,,,,,,,,,,,,,,,,,,,,space,8.7033,a,1,,,,,,E,a,White,,,,,,,,,,,,,,,,,,,,,,,,,,,,,,,,,,,,2.0163,0,0,0,0,1,,,,,
,,,,,,,,,,,,,,258,1,2023-12-04_11h05.06.449,Online_SceneSrcMD_E,2020.2.10,MacIntel,60,,,,,,,,,,,,,,,,,,,,,,,,,,,,,n,1,,,,,,1,n,White,,,,,,,,,,,,,,,,,,,,,,,,,,,,,,,,,,,,0.9747,0,1,1,1,1,,,,,
,,,,,,,,,,,,,,258,1,2023-12-04_11h05.06.449,Online_SceneSrcMD_E,2020.2.10,MacIntel,60,,,,,,,,,,,,,,,,,,,,,,,,,,,,,n,1,,,,,,6,n,White,,,,,,,,,,,,,,,,,,,,,,,,,,,,,,,,,,,,1.5987,0,2,2,2,1,,,,,
,,,,,,,,,,,,,,258,1,2023-12-04_11h05.06.449,Online_SceneSrcMD_E,2020.2.10,MacIntel,60,,,,,,,,,,,,,,,,,,,,,,,,,,,,,a,1,,,,,,O,a,White,,,,,,,,,,,,,,,,,,,,,,,,,,,,,,,,,,,,2.1306,0,3,3,3,1,,,,,
,,,,,,,,,,,,,,258,1,2023-12-04_11h05.06.449,Online_SceneSrcMD_E,2020.2.10,MacIntel,60,,,,,,,,,,,,,,,,,,,,,,,,,,,,,n,1,,,,,,5,n,White,,,,,,,,,,,,,,,,,,,,,,,,,,,,,,,,,,,,0.8156,0,4,4,4,1,,,,,
,,,,,,,,,,,,,,258,1,2023-12-04_11h05.06.449,Online_SceneSrcMD_E,2020.2.10,MacIntel,60,,,,,,,,,,,,,,,,,,,,,,,,,,,,,n,1,,,,,,7,n,White,,,,,,,,,,,,,,,,,,,,,,,,,,,,,,,,,,,,1.2533,0,5,5,5,1,,,,,
,,,,,,,,,,,,,,258,1,2023-12-04_11h05.06.449,Online_SceneSrcMD_E,2020.2.10,MacIntel,60,,,,,,,,,,,,,,,,,,,,,,,,,,,,,n,1,,,,,,8,n,White,,,,,,,,,,,,,,,,,,,,,,,,,,,,,,,,,,,,0.6141,0,6,6,6,1,,,,,
,,,,,,,,,,,,,,258,1,2023-12-04_11h05.06.449,Online_SceneSrcMD_E,2020.2.10,MacIntel,60,,,,,,,,,,,,,,,,,,,,,,,,,,,,,n,1,,,,,,6,n,White,,,,,,,,,,,,,,,,,,,,,,,,,,,,,,,,,,,,0.5318,0,7,7,7,1,,,,,
,,,,,,,,,,,,,,258,1,2023-12-04_11h05.06.449,Online_SceneSrcMD_E,2020.2.10,MacIntel,60,,,,,,,,,,,,,,,,,,,,,,,,,,,,,a,1,,,,,,Z,a,White,,,,,,,,,,,,,,,,,,,,,,,,,,,,,,,,,,,,1.2012,0,8,8,8,1,,,,,
,,,,,,,,,,,,,,258,1,2023-12-04_11h05.06.449,Online_SceneSrcMD_E,2020.2.10,MacIntel,60,,,,,,,,,,,,,,,,,,,,,,,,,,,,,a,1,,,,,,B,a,White,,,,,,,,,,,,,,,,,,,,,,,,,,,,,,,,,,,,0.8055,0,9,9,9,1,,,,,
,,,,,,,,,,,,,,258,1,2023-12-04_11h05.06.449,Online_SceneSrcMD_E,2020.2.10,MacIntel,60,,,,,,,,,,,,,,,,,,,,,,,,,,,,,n,1,,,,,,5,n,White,,,,,,,,,,,,,,,,,,,,,,,,,,,,,,,,,,,,0.7052,0,10,10,10,1,,,,,
,,,,,,,,,,,,,,258,1,2023-12-04_11h05.06.449,Online_SceneSrcMD_E,2020.2.10,MacIntel,60,,,,,,,,,,,,,,,,,,,,,,,,,,,,,a,1,,,,,,G,a,White,,,,,,,,,,,,,,,,,,,,,,,,,,,,,,,,,,,,1.5737,0,11,11,11,1,,,,,
,,,,,,,,,,,,,,258,1,2023-12-04_11h05.06.449,Online_SceneSrcMD_E,2020.2.10,MacIntel,60,,,,,,,,,,,,,,,,,,,,,,,,,,,,,n,1,,,,,,5,n,White,,,,,,,,,,,,,,,,,,,,,,,,,,,,,,,,,,,,0.5651,0,12,12,12,1,,,,,
,,,,,,,,,,,,,,258,1,2023-12-04_11h05.06.449,Online_SceneSrcMD_E,2020.2.10,MacIntel,60,,,,,,,,,,,,,,,,,,,,,,,,,,,,,a,1,,,,,,D,a,White,,,,,,,,,,,,,,,,,,,,,,,,,,,,,,,,,,,,1.5638,0,13,13,13,1,,,,,
,,,,,,,,,,,,,,258,1,2023-12-04_11h05.06.449,Online_SceneSrcMD_E,2020.2.10,MacIntel,60,,,,,,,,,,,,,,,,,,,,,,,,,,,,,a,1,,,,,,P,a,White,,,,,,,,,,,,,,,,,,,,,,,,,,,,,,,,,,,,0.8009,0,14,14,14,1,,,,,
,,,,,,,,,,,,,,258,1,2023-12-04_11h05.06.449,Online_SceneSrcMD_E,2020.2.10,MacIntel,60,,,,,,,,,,,,,,,,,,,,,,,,,,,,,n,1,,,,,,2,n,White,,,,,,,,,,,,,,,,,,,,,,,,,,,,,,,,,,,,0.4845,0,15,15,15,1,,,,,
,,,,,,,,,,,,,,258,1,2023-12-04_11h05.06.449,Online_SceneSrcMD_E,2020.2.10,MacIntel,60,,,,,,,,,,,,,,,,,,,,,,,,,,,,,n,1,,,,,,7,n,White,,,,,,,,,,,,,,,,,,,,,,,,,,,,,,,,,,,,1.448,0,16,16,16,1,,,,,
,,,,,,,,,,,,,,258,1,2023-12-04_11h05.06.449,Online_SceneSrcMD_E,2020.2.10,MacIntel,60,,,,,,,,,,,,,,,,,,,,,,,,,,,,,n,1,,,,,,7,n,White,,,,,,,,,,,,,,,,,,,,,,,,,,,,,,,,,,,,0.5005,0,17,17,17,1,,,,,
,,,,,,,,,,,,,,258,1,2023-12-04_11h05.06.449,Online_SceneSrcMD_E,2020.2.10,MacIntel,60,,,,,,,,,,,,,,,,,,,,,,,,,,,,,a,1,,,,,,K,a,White,,,,,,,,,,,,,,,,,,,,,,,,,,,,,,,,,,,,0.7856,0,18,18,18,1,,,,,
,,,,,,,,,,,,,,258,1,2023-12-04_11h05.06.449,Online_SceneSrcMD_E,2020.2.10,MacIntel,60,,,,,,,,,,,,,,,,,,,,,,,,,,,,,a,1,,,,,,D,a,White,,,,,,,,,,,,,,,,,,,,,,,,,,,,,,,,,,,,0.8545,0,19,19,19,1,,,,,
,,,,,,,,,,,,,,258,1,2023-12-04_11h05.06.449,Online_SceneSrcMD_E,2020.2.10,MacIntel,60,,,,,,,,,,,,,,,,,,,,,,,,,,,,,a,1,,,,,,I,a,White,,,,,,,,,,,,,,,,,,,,,,,,,,,,,,,,,,,,0.9987,0,20,20,20,1,,,,,
,,,,,,,,,,,,,,258,1,2023-12-04_11h05.06.449,Online_SceneSrcMD_E,2020.2.10,MacIntel,60,,,,,,,,,,,,,,,,,,,,,,,,,,,,,n,1,,,,,,7,n,White,,,,,,,,,,,,,,,,,,,,,,,,,,,,,,,,,,,,0.7489,0,21,21,21,1,,,,,
,,,,,,,,,,,,,,258,1,2023-12-04_11h05.06.449,Online_SceneSrcMD_E,2020.2.10,MacIntel,60,,,,,,,,,,,,,,,,,,,,,,,,,,,,,a,1,,,,,,R,a,White,,,,,,,,,,,,,,,,,,,,,,,,,,,,,,,,,,,,0.7337,0,22,22,22,1,,,,,
,,,,,,,,,,,,,,258,1,2023-12-04_11h05.06.449,Online_SceneSrcMD_E,2020.2.10,MacIntel,60,,,,,,,,,,,,,,,,,,,,,,,,,,,,,a,1,,,,,,E,a,White,,,,,,,,,,,,,,,,,,,,,,,,,,,,,,,,,,,,0.7308,0,23,23,23,1,,,,,
,,,,,,,,,,,,,,258,1,2023-12-04_11h05.06.449,Online_SceneSrcMD_E,2020.2.10,MacIntel,60,,,,,,,,,,,,,,,,,,,,,,,,,,,,,n,1,,,,,,8,n,White,,,,,,,,,,,,,,,,,,,,,,,,,,,,,,,,,,,,0.874,0,24,24,24,1,,,,,
,,,,,,,,,,,,,,258,1,2023-12-04_11h05.06.449,Online_SceneSrcMD_E,2020.2.10,MacIntel,60,,,,,,,,,,,,,,,,,,,,,,,,,,,,,a,1,,,,,,T,a,White,,,,,,,,,,,,,,,,,,,,,,,,,,,,,,,,,,,,0.7736,0,25,25,25,1,,,,,
,,,,,,,,,,,,,,258,1,2023-12-04_11h05.06.449,Online_SceneSrcMD_E,2020.2.10,MacIntel,60,,,,,,,,,,,,,,,,,,,,,,,,,,,,,n,1,,,,,,0,n,White,,,,,,,,,,,,,,,,,,,,,,,,,,,,,,,,,,,,1.0646,0,26,26,26,1,,,,,
,,,,,,,,,,,,,,258,1,2023-12-04_11h05.06.449,Online_SceneSrcMD_E,2020.2.10,MacIntel,60,,,,,,,,,,,,,,,,,,,,,,,,,,,,,a,1,,,,,,Q,a,White,,,,,,,,,,,,,,,,,,,,,,,,,,,,,,,,,,,,0.574,0,27,27,27,1,,,,,
,,,,,,,,,,,,,,258,1,2023-12-04_11h05.06.449,Online_SceneSrcMD_E,2020.2.10,MacIntel,60,,,,,,,,,,,,,,,,,,,,,,,,,,,,,n,1,,,,,,1,n,White,,,,,,,,,,,,,,,,,,,,,,,,,,,,,,,,,,,,0.6464,0,28,28,28,1,,,,,
,,,,,,,,,,,,,,258,1,2023-12-04_11h05.06.449,Online_SceneSrcMD_E,2020.2.10,MacIntel,60,,,,,,,,,,,,,,,,,,,,,,,,,,,,,n,1,,,,,,2,n,White,,,,,,,,,,,,,,,,,,,,,,,,,,,,,,,,,,,,0.5322,0,29,29,29,1,,,,,
,,,,,,,,,,,,,,258,1,2023-12-04_11h05.06.449,Online_SceneSrcMD_E,2020.2.10,MacIntel,60,,,,,,,,,,,,,,,,,,,,,,,,,,,,,n,1,,,,,,3,n,White,,,,,,,,,,,,,,,,,,,,,,,,,,,,,,,,,,,,0.6827,0,30,30,30,1,,,,,
,,,,,,,,,,,,,,258,1,2023-12-04_11h05.06.449,Online_SceneSrcMD_E,2020.2.10,MacIntel,60,,,,,,,,,,,,,,,,,,,,,,,,,,,,,a,1,,,,,,L,a,White,,,,,,,,,,,,,,,,,,,,,,,,,,,,,,,,,,,,0.7769,0,31,31,31,1,,,,,
,,,,,,,,,,,,,,258,1,2023-12-04_11h05.06.449,Online_SceneSrcMD_E,2020.2.10,MacIntel,60,,,,,,,,,,,,,,,,,,,,,,,,,,,,,a,1,,,,,,Y,a,White,,,,,,,,,,,,,,,,,,,,,,,,,,,,,,,,,,,,0.8169,0,32,32,32,1,,,,,
,,,,,,,,,,,,,,258,1,2023-12-04_11h05.06.449,Online_SceneSrcMD_E,2020.2.10,MacIntel,60,,,,,,,,,,,,,,,,,,,,,,,,,,,,,n,1,,,,,,8,n,White,,,,,,,,,,,,,,,,,,,,,,,,,,,,,,,,,,,,0.6849,0,33,33,33,1,,,,,
,,,,,,,,,,,,,,258,1,2023-12-04_11h05.06.449,Online_SceneSrcMD_E,2020.2.10,MacIntel,60,,,,,,,,,,,,,,,,,,,,,,,,,,,,,,,,,,,,,,,,,,,,ZeroBlock.csv,Block 1,,,,,,,,,,,,,,,,,,,,,,,,,,,,,,,,,,,0,0,0,0,1
,,,,,,,,,,,,,,258,1,2023-12-04_11h05.06.449,Online_SceneSrcMD_E,2020.2.10,MacIntel,60,,,,,,,,,,,,,,,,,,,,,,,,,,,,,n,1,,,,,,6,n,White,,,,,,,,,,,,,,,,,,,,,,,,,,,,,,,,,,,,0.9693,0,0,0,0,1,,,,,
,,,,,,,,,,,,,,258,1,2023-12-04_11h05.06.449,Online_SceneSrcMD_E,2020.2.10,MacIntel,60,,,,,,,,,,,,,,,,,,,,,,,,,,,,,n,1,,,,,,1,n,White,,,,,,,,,,,,,,,,,,,,,,,,,,,,,,,,,,,,0.7829,0,1,1,1,1,,,,,
,,,,,,,,,,,,,,258,1,2023-12-04_11h05.06.449,Online_SceneSrcMD_E,2020.2.10,MacIntel,60,,,,,,,,,,,,,,,,,,,,,,,,,,,,,a,1,,,,,,B,a,White,,,,,,,,,,,,,,,,,,,,,,,,,,,,,,,,,,,,0.5146,0,2,2,2,1,,,,,
,,,,,,,,,,,,,,258,1,2023-12-04_11h05.06.449,Online_SceneSrcMD_E,2020.2.10,MacIntel,60,,,,,,,,,,,,,,,,,,,,,,,,,,,,,n,1,,,,,,4,n,White,,,,,,,,,,,,,,,,,,,,,,,,,,,,,,,,,,,,0.916,0,3,3,3,1,,,,,
,,,,,,,,,,,,,,258,1,2023-12-04_11h05.06.449,Online_SceneSrcMD_E,2020.2.10,MacIntel,60,,,,,,,,,,,,,,,,,,,,,,,,,,,,,n,1,,,,,,3,n,White,,,,,,,,,,,,,,,,,,,,,,,,,,,,,,,,,,,,1.085,0,4,4,4,1,,,,,
,,,,,,,,,,,,,,258,1,2023-12-04_11h05.06.449,Online_SceneSrcMD_E,2020.2.10,MacIntel,60,,,,,,,,,,,,,,,,,,,,,,,,,,,,,n,1,,,,,,2,n,White,,,,,,,,,,,,,,,,,,,,,,,,,,,,,,,,,,,,0.5336,0,5,5,5,1,,,,,
,,,,,,,,,,,,,,258,1,2023-12-04_11h05.06.449,Online_SceneSrcMD_E,2020.2.10,MacIntel,60,,,,,,,,,,,,,,,,,,,,,,,,,,,,,n,1,,,,,,5,n,White,,,,,,,,,,,,,,,,,,,,,,,,,,,,,,,,,,,,0.4492,0,6,6,6,1,,,,,
,,,,,,,,,,,,,,258,1,2023-12-04_11h05.06.449,Online_SceneSrcMD_E,2020.2.10,MacIntel,60,,,,,,,,,,,,,,,,,,,,,,,,,,,,,n,1,,,,,,3,n,White,,,,,,,,,,,,,,,,,,,,,,,,,,,,,,,,,,,,0.4788,0,7,7,7,1,,,,,
,,,,,,,,,,,,,,258,1,2023-12-04_11h05.06.449,Online_SceneSrcMD_E,2020.2.10,MacIntel,60,,,,,,,,,,,,,,,,,,,,,,,,,,,,,a,1,,,,,,L,a,White,,,,,,,,,,,,,,,,,,,,,,,,,,,,,,,,,,,,0.5213,0,8,8,8,1,,,,,
,,,,,,,,,,,,,,258,1,2023-12-04_11h05.06.449,Online_SceneSrcMD_E,2020.2.10,MacIntel,60,,,,,,,,,,,,,,,,,,,,,,,,,,,,,n,1,,,,,,8,n,White,,,,,,,,,,,,,,,,,,,,,,,,,,,,,,,,,,,,0.5648,0,9,9,9,1,,,,,
,,,,,,,,,,,,,,258,1,2023-12-04_11h05.06.449,Online_SceneSrcMD_E,2020.2.10,MacIntel,60,,,,,,,,,,,,,,,,,,,,,,,,,,,,,a,1,,,,,,U,a,White,,,,,,,,,,,,,,,,,,,,,,,,,,,,,,,,,,,,0.7535,0,10,10,10,1,,,,,
,,,,,,,,,,,,,,258,1,2023-12-04_11h05.06.449,Online_SceneSrcMD_E,2020.2.10,MacIntel,60,,,,,,,,,,,,,,,,,,,,,,,,,,,,,n,1,,,,,,3,n,White,,,,,,,,,,,,,,,,,,,,,,,,,,,,,,,,,,,,0.5769,0,11,11,11,1,,,,,
,,,,,,,,,,,,,,258,1,2023-12-04_11h05.06.449,Online_SceneSrcMD_E,2020.2.10,MacIntel,60,,,,,,,,,,,,,,,,,,,,,,,,,,,,,n,1,,,,,,7,n,White,,,,,,,,,,,,,,,,,,,,,,,,,,,,,,,,,,,,1.3857,0,12,12,12,1,,,,,
,,,,,,,,,,,,,,258,1,2023-12-04_11h05.06.449,Online_SceneSrcMD_E,2020.2.10,MacIntel,60,,,,,,,,,,,,,,,,,,,,,,,,,,,,,n,1,,,,,,6,n,White,,,,,,,,,,,,,,,,,,,,,,,,,,,,,,,,,,,,0.8532,0,13,13,13,1,,,,,
,,,,,,,,,,,,,,258,1,2023-12-04_11h05.06.449,Online_SceneSrcMD_E,2020.2.10,MacIntel,60,,,,,,,,,,,,,,,,,,,,,,,,,,,,,a,1,,,,,,B,a,White,,,,,,,,,,,,,,,,,,,,,,,,,,,,,,,,,,,,0.7999,0,14,14,14,1,,,,,
,,,,,,,,,,,,,,258,1,2023-12-04_11h05.06.449,Online_SceneSrcMD_E,2020.2.10,MacIntel,60,,,,,,,,,,,,,,,,,,,,,,,,,,,,,a,1,,,,,,M,a,White,,,,,,,,,,,,,,,,,,,,,,,,,,,,,,,,,,,,1.298,0,15,15,15,1,,,,,
,,,,,,,,,,,,,,258,1,2023-12-04_11h05.06.449,Online_SceneSrcMD_E,2020.2.10,MacIntel,60,,,,,,,,,,,,,,,,,,,,,,,,,,,,,n,1,,,,,,7,n,White,,,,,,,,,,,,,,,,,,,,,,,,,,,,,,,,,,,,0.616,0,16,16,16,1,,,,,
,,,,,,,,,,,,,,258,1,2023-12-04_11h05.06.449,Online_SceneSrcMD_E,2020.2.10,MacIntel,60,,,,,,,,,,,,,,,,,,,,,,,,,,,,,n,1,,,,,,1,n,White,,,,,,,,,,,,,,,,,,,,,,,,,,,,,,,,,,,,0.8686,0,17,17,17,1,,,,,
,,,,,,,,,,,,,,258,1,2023-12-04_11h05.06.449,Online_SceneSrcMD_E,2020.2.10,MacIntel,60,,,,,,,,,,,,,,,,,,,,,,,,,,,,,n,1,,,,,,4,n,White,,,,,,,,,,,,,,,,,,,,,,,,,,,,,,,,,,,,0.4656,0,18,18,18,1,,,,,
,,,,,,,,,,,,,,258,1,2023-12-04_11h05.06.449,Online_SceneSrcMD_E,2020.2.10,MacIntel,60,,,,,,,,,,,,,,,,,,,,,,,,,,,,,a,1,,,,,,Z,a,White,,,,,,,,,,,,,,,,,,,,,,,,,,,,,,,,,,,,1.2813,0,19,19,19,1,,,,,
,,,,,,,,,,,,,,258,1,2023-12-04_11h05.06.449,Online_SceneSrcMD_E,2020.2.10,MacIntel,60,,,,,,,,,,,,,,,,,,,,,,,,,,,,,n,1,,,,,,5,n,White,,,,,,,,,,,,,,,,,,,,,,,,,,,,,,,,,,,,0.6581,0,20,20,20,1,,,,,
,,,,,,,,,,,,,,258,1,2023-12-04_11h05.06.449,Online_SceneSrcMD_E,2020.2.10,MacIntel,60,,,,,,,,,,,,,,,,,,,,,,,,,,,,,a,1,,,,,,S,a,White,,,,,,,,,,,,,,,,,,,,,,,,,,,,,,,,,,,,0.7908,0,21,21,21,1,,,,,
,,,,,,,,,,,,,,258,1,2023-12-04_11h05.06.449,Online_SceneSrcMD_E,2020.2.10,MacIntel,60,,,,,,,,,,,,,,,,,,,,,,,,,,,,,n,0,,,,,,V,a,White,,,,,,,,,,,,,,,,,,,,,,,,,,,,,,,,,,,,0.6014,0,22,22,22,1,,,,,
,,,,,,,,,,,,,,258,1,2023-12-04_11h05.06.449,Online_SceneSrcMD_E,2020.2.10,MacIntel,60,,,,,,,,,,,,,,,,,,,,,,,,,,,,,n,1,,,,,,4,n,White,,,,,,,,,,,,,,,,,,,,,,,,,,,,,,,,,,,,0.4694,0,23,23,23,1,,,,,
,,,,,,,,,,,,,,258,1,2023-12-04_11h05.06.449,Online_SceneSrcMD_E,2020.2.10,MacIntel,60,,,,,,,,,,,,,,,,,,,,,,,,,,,,,n,1,,,,,,6,n,White,,,,,,,,,,,,,,,,,,,,,,,,,,,,,,,,,,,,0.6753,0,24,24,24,1,,,,,
,,,,,,,,,,,,,,258,1,2023-12-04_11h05.06.449,Online_SceneSrcMD_E,2020.2.10,MacIntel,60,,,,,,,,,,,,,,,,,,,,,,,,,,,,,n,1,,,,,,7,n,White,,,,,,,,,,,,,,,,,,,,,,,,,,,,,,,,,,,,0.8856,0,25,25,25,1,,,,,
,,,,,,,,,,,,,,258,1,2023-12-04_11h05.06.449,Online_SceneSrcMD_E,2020.2.10,MacIntel,60,,,,,,,,,,,,,,,,,,,,,,,,,,,,,n,1,,,,,,5,n,White,,,,,,,,,,,,,,,,,,,,,,,,,,,,,,,,,,,,0.569,0,26,26,26,1,,,,,
,,,,,,,,,,,,,,258,1,2023-12-04_11h05.06.449,Online_SceneSrcMD_E,2020.2.10,MacIntel,60,,,,,,,,,,,,,,,,,,,,,,,,,,,,,n,1,,,,,,0,n,White,,,,,,,,,,,,,,,,,,,,,,,,,,,,,,,,,,,,0.5651,0,27,27,27,1,,,,,
,,,,,,,,,,,,,,258,1,2023-12-04_11h05.06.449,Online_SceneSrcMD_E,2020.2.10,MacIntel,60,,,,,,,,,,,,,,,,,,,,,,,,,,,,,a,1,,,,,,G,a,White,,,,,,,,,,,,,,,,,,,,,,,,,,,,,,,,,,,,0.4748,0,28,28,28,1,,,,,
,,,,,,,,,,,,,,258,1,2023-12-04_11h05.06.449,Online_SceneSrcMD_E,2020.2.10,MacIntel,60,,,,,,,,,,,,,,,,,,,,,,,,,,,,,a,1,,,,,,V,a,White,,,,,,,,,,,,,,,,,,,,,,,,,,,,,,,,,,,,0.7902,0,29,29,29,1,,,,,
,,,,,,,,,,,,,,258,1,2023-12-04_11h05.06.449,Online_SceneSrcMD_E,2020.2.10,MacIntel,60,,,,,,,,,,,,,,,,,,,,,,,,,,,,,n,1,,,,,,5,n,White,,,,,,,,,,,,,,,,,,,,,,,,,,,,,,,,,,,,0.5465,0,30,30,30,1,,,,,
,,,,,,,,,,,,,,258,1,2023-12-04_11h05.06.449,Online_SceneSrcMD_E,2020.2.10,MacIntel,60,,,,,,,,,,,,,,,,,,,,,,,,,,,,,n,1,,,,,,5,n,White,,,,,,,,,,,,,,,,,,,,,,,,,,,,,,,,,,,,0.5492,0,31,31,31,1,,,,,
,,,,,,,,,,,,,,258,1,2023-12-04_11h05.06.449,Online_SceneSrcMD_E,2020.2.10,MacIntel,60,,,,,,,,,,,,,,,,,,,,,,,,,,,,,a,1,,,,,,Y,a,White,,,,,,,,,,,,,,,,,,,,,,,,,,,,,,,,,,,,0.6003,0,32,32,32,1,,,,,
,,,,,,,,,,,,,,258,1,2023-12-04_11h05.06.449,Online_SceneSrcMD_E,2020.2.10,MacIntel,60,,,,,,,,,,,,,,,,,,,,,,,,,,,,,a,1,,,,,,R,a,White,,,,,,,,,,,,,,,,,,,,,,,,,,,,,,,,,,,,0.6475,0,33,33,33,1,,,,,
,,,,,,,,,,,,,,258,1,2023-12-04_11h05.06.449,Online_SceneSrcMD_E,2020.2.10,MacIntel,60,,,,,,,,,,,,,,,,,,,,,,,,,,,,,,,,,,,,,,,,,,,,OneBlock.csv,Block 2,,,,,,,,,,,,,,,,,,,,,,,,,,,,,,,,,,,0,1,1,1,1
,,,,,,,,,,,,,,258,1,2023-12-04_11h05.06.449,Online_SceneSrcMD_E,2020.2.10,MacIntel,60,,,,,,,,,,,,,,,,,,,,,,,,,,,,,n,1,,,,,,3,n,White,,,,,,,,,,,,,,,,,,,,,,,,,,,,,,,,,,,,0.6648,0,0,0,0,1,,,,,
,,,,,,,,,,,,,,258,1,2023-12-04_11h05.06.449,Online_SceneSrcMD_E,2020.2.10,MacIntel,60,,,,,,,,,,,,,,,,,,,,,,,,,,,,,n,1,,,,,,2,n,White,,,,,,,,,,,,,,,,,,,,,,,,,,,,,,,,,,,,0.5612,0,1,1,1,1,,,,,
,,,,,,,,,,,,,,258,1,2023-12-04_11h05.06.449,Online_SceneSrcMD_E,2020.2.10,MacIntel,60,,,,,,,,,,,,,,,,,,,,,,,,,,,,,a,1,,,,,,E,a,White,,,,,,,,,,,,,,,,,,,,,,,,,,,,,,,,,,,,0.7168,0,2,2,2,1,,,,,
,,,,,,,,,,,,,,258,1,2023-12-04_11h05.06.449,Online_SceneSrcMD_E,2020.2.10,MacIntel,60,,,,,,,,,,,,,,,,,,,,,,,,,,,,,n,1,,,,,,6,n,White,,,,,,,,,,,,,,,,,,,,,,,,,,,,,,,,,,,,2.0692,0,3,3,3,1,,,,,
,,,,,,,,,,,,,,258,1,2023-12-04_11h05.06.449,Online_SceneSrcMD_E,2020.2.10,MacIntel,60,,,,,,,,,,,,,,,,,,,,,,,,,,,,,a,1,,,,,,I,a,White,,,,,,,,,,,,,,,,,,,,,,,,,,,,,,,,,,,,0.7056,0,4,4,4,1,,,,,
,,,,,,,,,,,,,,258,1,2023-12-04_11h05.06.449,Online_SceneSrcMD_E,2020.2.10,MacIntel,60,,,,,,,,,,,,,,,,,,,,,,,,,,,,,n,1,,,,,,1,n,White,,,,,,,,,,,,,,,,,,,,,,,,,,,,,,,,,,,,0.5172,0,5,5,5,1,,,,,
,,,,,,,,,,,,,,258,1,2023-12-04_11h05.06.449,Online_SceneSrcMD_E,2020.2.10,MacIntel,60,,,,,,,,,,,,,,,,,,,,,,,,,,,,,n,1,,,,,,6,n,White,,,,,,,,,,,,,,,,,,,,,,,,,,,,,,,,,,,,0.7393,0,6,6,6,1,,,,,
,,,,,,,,,,,,,,258,1,2023-12-04_11h05.06.449,Online_SceneSrcMD_E,2020.2.10,MacIntel,60,,,,,,,,,,,,,,,,,,,,,,,,,,,,,a,1,,,,,,B,a,White,,,,,,,,,,,,,,,,,,,,,,,,,,,,,,,,,,,,0.5649,0,7,7,7,1,,,,,
,,,,,,,,,,,,,,258,1,2023-12-04_11h05.06.449,Online_SceneSrcMD_E,2020.2.10,MacIntel,60,,,,,,,,,,,,,,,,,,,,,,,,,,,,,n,1,,,,,,9,n,White,,,,,,,,,,,,,,,,,,,,,,,,,,,,,,,,,,,,0.6322,0,8,8,8,1,,,,,
,,,,,,,,,,,,,,258,1,2023-12-04_11h05.06.449,Online_SceneSrcMD_E,2020.2.10,MacIntel,60,,,,,,,,,,,,,,,,,,,,,,,,,,,,,n,1,,,,,,7,n,White,,,,,,,,,,,,,,,,,,,,,,,,,,,,,,,,,,,,0.5746,0,9,9,9,1,,,,,
,,,,,,,,,,,,,,258,1,2023-12-04_11h05.06.449,Online_SceneSrcMD_E,2020.2.10,MacIntel,60,,,,,,,,,,,,,,,,,,,,,,,,,,,,,n,1,,,,,,7,n,White,,,,,,,,,,,,,,,,,,,,,,,,,,,,,,,,,,,,0.4489,0,10,10,10,1,,,,,
,,,,,,,,,,,,,,258,1,2023-12-04_11h05.06.449,Online_SceneSrcMD_E,2020.2.10,MacIntel,60,,,,,,,,,,,,,,,,,,,,,,,,,,,,,a,1,,,,,,J,a,White,,,,,,,,,,,,,,,,,,,,,,,,,,,,,,,,,,,,0.9774,0,11,11,11,1,,,,,
,,,,,,,,,,,,,,258,1,2023-12-04_11h05.06.449,Online_SceneSrcMD_E,2020.2.10,MacIntel,60,,,,,,,,,,,,,,,,,,,,,,,,,,,,,a,1,,,,,,H,a,White,,,,,,,,,,,,,,,,,,,,,,,,,,,,,,,,,,,,0.9977,0,12,12,12,1,,,,,
,,,,,,,,,,,,,,258,1,2023-12-04_11h05.06.449,Online_SceneSrcMD_E,2020.2.10,MacIntel,60,,,,,,,,,,,,,,,,,,,,,,,,,,,,,n,1,,,,,,1,n,White,,,,,,,,,,,,,,,,,,,,,,,,,,,,,,,,,,,,0.5007,0,13,13,13,1,,,,,
,,,,,,,,,,,,,,258,1,2023-12-04_11h05.06.449,Online_SceneSrcMD_E,2020.2.10,MacIntel,60,,,,,,,,,,,,,,,,,,,,,,,,,,,,,a,1,,,,,,H,a,White,,,,,,,,,,,,,,,,,,,,,,,,,,,,,,,,,,,,0.6467,0,14,14,14,1,,,,,
,,,,,,,,,,,,,,258,1,2023-12-04_11h05.06.449,Online_SceneSrcMD_E,2020.2.10,MacIntel,60,,,,,,,,,,,,,,,,,,,,,,,,,,,,,n,1,,,,,,0,n,White,,,,,,,,,,,,,,,,,,,,,,,,,,,,,,,,,,,,0.822,0,15,15,15,1,,,,,
,,,,,,,,,,,,,,258,1,2023-12-04_11h05.06.449,Online_SceneSrcMD_E,2020.2.10,MacIntel,60,,,,,,,,,,,,,,,,,,,,,,,,,,,,,n,1,,,,,,1,n,White,,,,,,,,,,,,,,,,,,,,,,,,,,,,,,,,,,,,0.5702,0,16,16,16,1,,,,,
,,,,,,,,,,,,,,258,1,2023-12-04_11h05.06.449,Online_SceneSrcMD_E,2020.2.10,MacIntel,60,,,,,,,,,,,,,,,,,,,,,,,,,,,,,a,1,,,,,,L,a,White,,,,,,,,,,,,,,,,,,,,,,,,,,,,,,,,,,,,0.7333,0,17,17,17,1,,,,,
,,,,,,,,,,,,,,258,1,2023-12-04_11h05.06.449,Online_SceneSrcMD_E,2020.2.10,MacIntel,60,,,,,,,,,,,,,,,,,,,,,,,,,,,,,n,1,,,,,,6,n,White,,,,,,,,,,,,,,,,,,,,,,,,,,,,,,,,,,,,0.7167,0,18,18,18,1,,,,,
,,,,,,,,,,,,,,258,1,2023-12-04_11h05.06.449,Online_SceneSrcMD_E,2020.2.10,MacIntel,60,,,,,,,,,,,,,,,,,,,,,,,,,,,,,n,1,,,,,,7,n,White,,,,,,,,,,,,,,,,,,,,,,,,,,,,,,,,,,,,0.6158,0,19,19,19,1,,,,,
,,,,,,,,,,,,,,258,1,2023-12-04_11h05.06.449,Online_SceneSrcMD_E,2020.2.10,MacIntel,60,,,,,,,,,,,,,,,,,,,,,,,,,,,,,n,1,,,,,,9,n,White,,,,,,,,,,,,,,,,,,,,,,,,,,,,,,,,,,,,0.501,0,20,20,20,1,,,,,
,,,,,,,,,,,,,,258,1,2023-12-04_11h05.06.449,Online_SceneSrcMD_E,2020.2.10,MacIntel,60,,,,,,,,,,,,,,,,,,,,,,,,,,,,,a,1,,,,,,X,a,White,,,,,,,,,,,,,,,,,,,,,,,,,,,,,,,,,,,,0.5638,0,21,21,21,1,,,,,
,,,,,,,,,,,,,,258,1,2023-12-04_11h05.06.449,Online_SceneSrcMD_E,2020.2.10,MacIntel,60,,,,,,,,,,,,,,,,,,,,,,,,,,,,,a,1,,,,,,W,a,White,,,,,,,,,,,,,,,,,,,,,,,,,,,,,,,,,,,,0.6348,0,22,22,22,1,,,,,
,,,,,,,,,,,,,,258,1,2023-12-04_11h05.06.449,Online_SceneSrcMD_E,2020.2.10,MacIntel,60,,,,,,,,,,,,,,,,,,,,,,,,,,,,,n,1,,,,,,4,n,White,,,,,,,,,,,,,,,,,,,,,,,,,,,,,,,,,,,,0.653,0,23,23,23,1,,,,,
,,,,,,,,,,,,,,258,1,2023-12-04_11h05.06.449,Online_SceneSrcMD_E,2020.2.10,MacIntel,60,,,,,,,,,,,,,,,,,,,,,,,,,,,,,n,1,,,,,,5,n,White,,,,,,,,,,,,,,,,,,,,,,,,,,,,,,,,,,,,0.7552,0,24,24,24,1,,,,,
,,,,,,,,,,,,,,258,1,2023-12-04_11h05.06.449,Online_SceneSrcMD_E,2020.2.10,MacIntel,60,,,,,,,,,,,,,,,,,,,,,,,,,,,,,a,1,,,,,,N,a,White,,,,,,,,,,,,,,,,,,,,,,,,,,,,,,,,,,,,0.5136,0,25,25,25,1,,,,,
,,,,,,,,,,,,,,258,1,2023-12-04_11h05.06.449,Online_SceneSrcMD_E,2020.2.10,MacIntel,60,,,,,,,,,,,,,,,,,,,,,,,,,,,,,a,0,,,,,,5,n,White,,,,,,,,,,,,,,,,,,,,,,,,,,,,,,,,,,,,0.6013,0,26,26,26,1,,,,,
,,,,,,,,,,,,,,258,1,2023-12-04_11h05.06.449,Online_SceneSrcMD_E,2020.2.10,MacIntel,60,,,,,,,,,,,,,,,,,,,,,,,,,,,,,a,1,,,,,,Y,a,White,,,,,,,,,,,,,,,,,,,,,,,,,,,,,,,,,,,,0.7145,0,27,27,27,1,,,,,
,,,,,,,,,,,,,,258,1,2023-12-04_11h05.06.449,Online_SceneSrcMD_E,2020.2.10,MacIntel,60,,,,,,,,,,,,,,,,,,,,,,,,,,,,,a,1,,,,,,M,a,White,,,,,,,,,,,,,,,,,,,,,,,,,,,,,,,,,,,,0.7135,0,28,28,28,1,,,,,
,,,,,,,,,,,,,,258,1,2023-12-04_11h05.06.449,Online_SceneSrcMD_E,2020.2.10,MacIntel,60,,,,,,,,,,,,,,,,,,,,,,,,,,,,,a,1,,,,,,U,a,White,,,,,,,,,,,,,,,,,,,,,,,,,,,,,,,,,,,,0.6536,0,29,29,29,1,,,,,
,,,,,,,,,,,,,,258,1,2023-12-04_11h05.06.449,Online_SceneSrcMD_E,2020.2.10,MacIntel,60,,,,,,,,,,,,,,,,,,,,,,,,,,,,,n,1,,,,,,6,n,White,,,,,,,,,,,,,,,,,,,,,,,,,,,,,,,,,,,,0.6167,0,30,30,30,1,,,,,
,,,,,,,,,,,,,,258,1,2023-12-04_11h05.06.449,Online_SceneSrcMD_E,2020.2.10,MacIntel,60,,,,,,,,,,,,,,,,,,,,,,,,,,,,,n,1,,,,,,6,n,White,,,,,,,,,,,,,,,,,,,,,,,,,,,,,,,,,,,,0.5175,0,31,31,31,1,,,,,
,,,,,,,,,,,,,,258,1,2023-12-04_11h05.06.449,Online_SceneSrcMD_E,2020.2.10,MacIntel,60,,,,,,,,,,,,,,,,,,,,,,,,,,,,,a,1,,,,,,Y,a,White,,,,,,,,,,,,,,,,,,,,,,,,,,,,,,,,,,,,0.6638,0,32,32,32,1,,,,,
,,,,,,,,,,,,,,258,1,2023-12-04_11h05.06.449,Online_SceneSrcMD_E,2020.2.10,MacIntel,60,,,,,,,,,,,,,,,,,,,,,,,,,,,,,a,1,,,,,,I,a,White,,,,,,,,,,,,,,,,,,,,,,,,,,,,,,,,,,,,0.7491,0,33,33,33,1,,,,,
,,,,,,,,,,,,,,258,1,2023-12-04_11h05.06.449,Online_SceneSrcMD_E,2020.2.10,MacIntel,60,,,,,,,,,,,,,,,,,,,,,,,,,,,,,,,,,,,,,,,,,,,,TwoBlock.csv,Block 3,,,,,,,,,,,,,,,,,,,,,,,,,,,,,,,,,,,0,2,2,2,1