Instructions_Loop.thisRepN,Instructions_Loop.thisTrialN,Instructions_Loop.thisN,Instructions_Loop.thisIndex,Instructions_Loop.ran,Top,Top_Bottom,TBMT_int,Middle_Top,Middle,Middle_Bottom,Bottom_Top,Bottom_Middle,Bottom,Photo,Mid_Photo,participant,session,date,expName,psychopyVersion,OS,frameRate,Redo_Instructions_Resp.keys,Redo_Instructions_Resp.rt,Practice_Responding.keys,Practice_Responding.corr,Practice_Responding.rt,Repeat_Loop.thisRepN,Repeat_Loop.thisTrialN,Repeat_Loop.thisN,Repeat_Loop.thisIndex,Repeat_Loop.ran,Practice_Loop.thisRepN,Practice_Loop.thisTrialN,Practice_Loop.thisN,Practice_Loop.thisIndex,Practice_Loop.ran,Prac_Scene,Scale,Prac_Ans,PracticeText,Encoding_Resp.keys,Encoding_Resp.rt,Item_Mem_Response,Item_Conf_Response,Src_LoopRun,Blocks.thisRepN,Blocks.thisTrialN,Blocks.thisN,Blocks.thisIndex,Blocks.ran,Rec_Scene,RecAns,Src_Scene,SrcAns,Src_Resp.keys,Src_Resp.rt,Source_Mem_Response,Source_Conf_Response,Src_Blocks.thisRepN,Src_Blocks.thisTrialN,Src_Blocks.thisN,Src_Blocks.thisIndex,Src_Blocks.ran,Group_Order.thisRepN,Group_Order.thisTrialN,Group_Order.thisN,Group_Order.thisIndex,Group_Order.ran,blockFile,Src_blockFile
0,0,0,0,1,NaN,NaN,NaN,NaN,welcome,NaN,NaN,NaN,press SPACE to continue,Empty.png,Empty.png,167,1,2023-02-24_12h33.40.159,Online_SceneSrcMD_R,2020.2.10,MacIntel,60,,,,,,,,,,,,,,,,,,,,,,,,,,,,,,,,,,,,,,,,,,,,,,,,,
0,1,1,1,1,in this experiment you will complete a memory test for the images and colored frames that were presented yesterday.,NaN,NaN,the memory test will include previously seen AND new images.,NaN,NaN,NaN,NaN,press SPACE to continue,Empty.png,Empty.png,167,1,2023-02-24_12h33.40.159,Online_SceneSrcMD_R,2020.2.10,MacIntel,60,,,,,,,,,,,,,,,,,,,,,,,,,,,,,,,,,,,,,,,,,,,,,,,,,
0,2,2,2,1,images will be presented on the screen one at a time.,NaN,NaN,six blocks of images will be presented.,NaN,NaN,NaN,NaN,press SPACE to continue,Empty.png,Empty.png,167,1,2023-02-24_12h33.40.159,Online_SceneSrcMD_R,2020.2.10,MacIntel,60,,,,,,,,,,,,,,,,,,,,,,,,,,,,,,,,,,,,,,,,,,,,,,,,,
0,3,3,3,1,some of the images will portray scenes with emotional content.,NaN,NaN,if you become uncomfortable please remember that you can leave the experiment at any point without penalty.,NaN,NaN,NaN,NaN,press SPACE to continue,Empty.png,Empty.png,167,1,2023-02-24_12h33.40.159,Online_SceneSrcMD_R,2020.2.10,MacIntel,60,,,,,,,,,,,,,,,,,,,,,,,,,,,,,,,,,,,,,,,,,,,,,,,,,
0,4,4,4,1,"you will first report whether you remember previously seeing each image, and your confidence in your response.",when responding refer to the scale below:,NaN,NaN,NaN,use your keyboard to submit your response.,NaN,NaN,press SPACE to continue,Alternative_Scale.png,Empty.png,167,1,2023-02-24_12h33.40.159,Online_SceneSrcMD_R,2020.2.10,MacIntel,60,,,,,,,,,,,,,,,,,,,,,,,,,,,,,,,,,,,,,,,,,,,,,,,,,
0,5,5,5,1,"if you DO NOT remember seeing the image previously, use your left hand to respond using either the 'A', 'S', or 'D' keys.",NaN,NaN,NaN,NaN,'A' is Very Confident No (3),'D' is Not Confident No (1),'S' is Somewhat Confident No (2),press SPACE to continue,Alternative_Scale.png,Empty.png,167,1,2023-02-24_12h33.40.159,Online_SceneSrcMD_R,2020.2.10,MacIntel,60,,,,,,,,,,,,,,,,,,,,,,,,,,,,,,,,,,,,,,,,,,,,,,,,,
0,6,6,6,1,"if you DO remember seeing the image previously, use your right hand to respond using either the 'J', 'K', or 'L' keys.",NaN,NaN,NaN,NaN,'J' is Not Confident Yes (1),'L' is Very Confident Yes (3),'K' is Somewhat Confident Yes (2),press SPACE to continue,Alternative_Scale.png,Empty.png,167,1,2023-02-24_12h33.40.159,Online_SceneSrcMD_R,2020.2.10,MacIntel,60,,,,,,,,,,,,,,,,,,,,,,,,,,,,,,,,,,,,,,,,,,,,,,,,,
0,7,7,7,1,NaN,keep both hands on the keyboard once you begin the memory test.,NaN,NaN,NaN,"we are interested in your first reaction, so respond at your own pace but please report your initial ""gut reaction"".",NaN,NaN,press SPACE to continue,Empty.png,Empty.png,167,1,2023-02-24_12h33.40.159,Online_SceneSrcMD_R,2020.2.10,MacIntel,60,,,,,,,,,,,,,,,,,,,,,,,,,,,,,,,,,,,,,,,,,,,,,,,,,
0,8,8,8,1,NaN,NaN,please use the full range of the scale.,NaN,NaN,NaN,NaN,NaN,press SPACE to continue,Empty.png,Empty.png,167,1,2023-02-24_12h33.40.159,Online_SceneSrcMD_R,2020.2.10,MacIntel,60,,,,,,,,,,,,,,,,,,,,,,,,,,,,,,,,,,,,,,,,,,,,,,,,,
0,9,9,9,1,example of what you will see when reporting your memory for the image:,NaN,NaN,NaN,NaN,If you very confidently remembered this image you would press 'L'.,"If you very confidently did not remember, you would press 'A'.",NaN,press SPACE to continue,Empty.png,TS03scene_Rec.png,167,1,2023-02-24_12h33.40.159,Online_SceneSrcMD_R,2020.2.10,MacIntel,60,,,,,,,,,,,,,,,,,,,,,,,,,,,,,,,,,,,,,,,,,,,,,,,,,
0,10,10,10,1,"for remembered images, your memory and associated confidence will also be tested for the frame color which surrounded the image.",when responding refer to the scale below:,NaN,NaN,NaN,use your keyboard to submit your response.,NaN,NaN,press SPACE to continue,Alternative_Scale.png,Empty.png,167,1,2023-02-24_12h33.40.159,Online_SceneSrcMD_R,2020.2.10,MacIntel,60,,,,,,,,,,,,,,,,,,,,,,,,,,,,,,,,,,,,,,,,,,,,,,,,,
0,11,11,11,1,"if the color of the frame around the image differs from what you remember, use your left hand to respond using either the 'A', 'S', or 'D' keys.",NaN,NaN,NaN,NaN,'A' is Very Confident No (3),'D' is Not Confident No (1),'S' is Somewhat Confident No (2),press SPACE to continue,Alternative_Scale.png,Empty.png,167,1,2023-02-24_12h33.40.159,Online_SceneSrcMD_R,2020.2.10,MacIntel,60,,,,,,,,,,,,,,,,,,,,,,,,,,,,,,,,,,,,,,,,,,,,,,,,,
0,12,12,12,1,"if the color of the frame around the image matches what you remember, use your right hand to respond using either the 'J', 'K', or 'L' keys.",NaN,NaN,NaN,NaN,'J' is Not Confident Yes (1),'L' is Very Confident Yes (3),'K' is Somewhat Confident Yes (2),press SPACE to continue,Alternative_Scale.png,Empty.png,167,1,2023-02-24_12h33.40.159,Online_SceneSrcMD_R,2020.2.10,MacIntel,60,,,,,,,,,,,,,,,,,,,,,,,,,,,,,,,,,,,,,,,,,,,,,,,,,
0,13,13,13,1,example of what you will see when reporting your memory for the frame color:,NaN,NaN,NaN,NaN,If you very confidently remembered a yellow frame around the image you would press 'L'.,"If you very confidently remembered another color around the frame, you would press 'A'.",NaN,press SPACE to continue,Empty.png,TS03scene_SrcRec.png,167,1,2023-02-24_12h33.40.159,Online_SceneSrcMD_R,2020.2.10,MacIntel,60,,,,,,,,,,,,,,,,,,,,,,,,,,,,,,,,,,,,,,,,,,,,,,,,,
0,14,14,14,1,NaN,NaN,NaN,this is the end of the instructions,NaN,NaN,NaN,NaN,press SPACE to continue,Empty.png,Empty.png,167,1,2023-02-24_12h33.40.159,Online_SceneSrcMD_R,2020.2.10,MacIntel,60,,,,,,,,,,,,,,,,,,,,,,,,,,,,,,,,,,,,,,,,,,,,,,,,,
,,,,,,,,,,,,,,,,167,1,2023-02-24_12h33.40.159,Online_SceneSrcMD_R,2020.2.10,MacIntel,60,p,2.72,p,1,3.232,0,0,0,0,1,,,,,,,,,,,,,,,,,,,,,,,,,,,,,,,,,,,,,,,
,,,,,,,,,,,,,,,,167,1,2023-02-24_12h33.40.159,Online_SceneSrcMD_R,2020.2.10,MacIntel,60,,,,,,,,,,,0,0,0,0,1,Empty.png,Alternative_Scale.png,p,after memorizing the scale below press 'P' to proceed.,,,,,,,,,,,,,,,,,,,,,,,,,,,,,,
,,,,,,,,,,,,,,,,167,1,2023-02-24_12h33.40.159,Online_SceneSrcMD_R,2020.2.10,MacIntel,60,,,l,1,4.778,0,0,0,0,1,,,,,,,,,,,,,,,,,,,,,,,,,,,,,,,,,,,,,,,
,,,,,,,,,,,,,,,,167,1,2023-02-24_12h33.40.159,Online_SceneSrcMD_R,2020.2.10,MacIntel,60,,,,,,,,,,,0,1,1,1,1,TS01scene_Rec.png,Empty.png,l,what would you respond if you were very confident you remembered seeing this image?,,,,,,,,,,,,,,,,,,,,,,,,,,,,,,
,,,,,,,,,,,,,,,,167,1,2023-02-24_12h33.40.159,Online_SceneSrcMD_R,2020.2.10,MacIntel,60,,,a,1,7.575,0,0,0,0,1,,,,,,,,,,,,,,,,,,,,,,,,,,,,,,,,,,,,,,,
,,,,,,,,,,,,,,,,167,1,2023-02-24_12h33.40.159,Online_SceneSrcMD_R,2020.2.10,MacIntel,60,,,,,,,,,,,0,2,2,2,1,TS01scene_SrcRec.png,Empty.png,a,respond as if you very confidently remembered another border color around this photo.,,,,,,,,,,,,,,,,,,,,,,,,,,,,,,
,,,,,,,,,,,,,,,,167,1,2023-02-24_12h33.40.159,Online_SceneSrcMD_R,2020.2.10,MacIntel,60,,,a,1,4.443,0,0,0,0,1,,,,,,,,,,,,,,,,,,,,,,,,,,,,,,,,,,,,,,,
,,,,,,,,,,,,,,,,167,1,2023-02-24_12h33.40.159,Online_SceneSrcMD_R,2020.2.10,MacIntel,60,,,,,,,,,,,0,3,3,3,1,TS05scene_Rec.png,Empty.png,a,what would you respond if you were very confident you did not remember seeing this image?,,,,,,,,,,,,,,,,,,,,,,,,,,,,,,
,,,,,,,,,,,,,,,,167,1,2023-02-24_12h33.40.159,Online_SceneSrcMD_R,2020.2.10,MacIntel,60,,,j,1,6.38,0,0,0,0,1,,,,,,,,,,,,,,,,,,,,,,,,,,,,,,,,,,,,,,,
,,,,,,,,,,,,,,,,167,1,2023-02-24_12h33.40.159,Online_SceneSrcMD_R,2020.2.10,MacIntel,60,,,,,,,,,,,0,4,4,4,1,TS04scene_Rec.png,Empty.png,j,what would you respond if you were not confident you remembered seeing this image?,,,,,,,,,,,,,,,,,,,,,,,,,,,,,,
,,,,,,,,,,,,,,,,167,1,2023-02-24_12h33.40.159,Online_SceneSrcMD_R,2020.2.10,MacIntel,60,,,a,1,5.341,0,0,0,0,1,,,,,,,,,,,,,,,,,,,,,,,,,,,,,,,,,,,,,,,
,,,,,,,,,,,,,,,,167,1,2023-02-24_12h33.40.159,Online_SceneSrcMD_R,2020.2.10,MacIntel,60,,,,,,,,,,,0,5,5,5,1,TS04scene_SrcRec.png,Empty.png,a,respond as if you very confidently remembered another border color around this photo.,,,,,,,,,,,,,,,,,,,,,,,,,,,,,,
,,,,,,,,,,,,,,,,167,1,2023-02-24_12h33.40.159,Online_SceneSrcMD_R,2020.2.10,MacIntel,60,,,s,1,3.115,0,0,0,0,1,,,,,,,,,,,,,,,,,,,,,,,,,,,,,,,,,,,,,,,
,,,,,,,,,,,,,,,,167,1,2023-02-24_12h33.40.159,Online_SceneSrcMD_R,2020.2.10,MacIntel,60,,,,,,,,,,,0,6,6,6,1,TS08scene_Rec.png,Empty.png,s,what would you respond if you were somewhat confident you did not remember seeing this image?,,,,,,,,,,,,,,,,,,,,,,,,,,,,,,
,,,,,,,,,,,,,,,,167,1,2023-02-24_12h33.40.159,Online_SceneSrcMD_R,2020.2.10,MacIntel,60,,,k,1,2.405,0,0,0,0,1,,,,,,,,,,,,,,,,,,,,,,,,,,,,,,,,,,,,,,,
,,,,,,,,,,,,,,,,167,1,2023-02-24_12h33.40.159,Online_SceneSrcMD_R,2020.2.10,MacIntel,60,,,,,,,,,,,0,7,7,7,1,TS02scene_Rec.png,Empty.png,k,what would you respond if you were somewhat confident you remembered seeing this image?,,,,,,,,,,,,,,,,,,,,,,,,,,,,,,
,,,,,,,,,,,,,,,,167,1,2023-02-24_12h33.40.159,Online_SceneSrcMD_R,2020.2.10,MacIntel,60,,,s,1,5.385,0,0,0,0,1,,,,,,,,,,,,,,,,,,,,,,,,,,,,,,,,,,,,,,,
,,,,,,,,,,,,,,,,167,1,2023-02-24_12h33.40.159,Online_SceneSrcMD_R,2020.2.10,MacIntel,60,,,,,,,,,,,0,8,8,8,1,TS02scene_SrcRec.png,Empty.png,s,respond as if you somewhat confidently remembered another border color around this photo.,,,,,,,,,,,,,,,,,,,,,,,,,,,,,,
,,,,,,,,,,,,,,,,167,1,2023-02-24_12h33.40.159,Online_SceneSrcMD_R,2020.2.10,MacIntel,60,,,d,1,6.881,0,0,0,0,1,,,,,,,,,,,,,,,,,,,,,,,,,,,,,,,,,,,,,,,
,,,,,,,,,,,,,,,,167,1,2023-02-24_12h33.40.159,Online_SceneSrcMD_R,2020.2.10,MacIntel,60,,,,,,,,,,,0,9,9,9,1,TS07scene_Rec.png,Empty.png,d,what would you respond if you were not confident you did not remember seeing this image?,,,,,,,,,,,,,,,,,,,,,,,,,,,,,,
,,,,,,,,,,,,,,,,167,1,2023-02-24_12h33.40.159,Online_SceneSrcMD_R,2020.2.10,MacIntel,60,,,k,1,3.845,0,0,0,0,1,,,,,,,,,,,,,,,,,,,,,,,,,,,,,,,,,,,,,,,
,,,,,,,,,,,,,,,,167,1,2023-02-24_12h33.40.159,Online_SceneSrcMD_R,2020.2.10,MacIntel,60,,,,,,,,,,,0,10,10,10,1,TS03scene_SrcRec.png,Empty.png,k,respond as if you somewhat confidently remembered a yellow border around this photo.,,,,,,,,,,,,,,,,,,,,,,,,,,,,,,
,,,,,,,,,,,,,,,,167,1,2023-02-24_12h33.40.159,Online_SceneSrcMD_R,2020.2.10,MacIntel,60,,,,,,,,,,,,,,,,,,,,s,2.489,0,2,0,0,0,0,0,1,N2-8280_Rec.png,0,N2-8280Real.png,1,,,,,,,,,,,,,,,,
,,,,,,,,,,,,,,,,167,1,2023-02-24_12h33.40.159,Online_SceneSrcMD_R,2020.2.10,MacIntel,60,,,,,,,,,,,,,,,,,,,,s,3.45,0,2,0,0,1,1,1,1,N2-2499_Rec.png,0,N2-2499_SrcRec.png,0,,,,,,,,,,,,,,,,
,,,,,,,,,,,,,,,,167,1,2023-02-24_12h33.40.159,Online_SceneSrcMD_R,2020.2.10,MacIntel,60,,,,,,,,,,,,,,,,,,,,s,2.61,0,2,0,0,2,2,2,1,E2-3069_Rec.png,0,E2-3069Real.png,1,,,,,,,,,,,,,,,,
,,,,,,,,,,,,,,,,167,1,2023-02-24_12h33.40.159,Online_SceneSrcMD_R,2020.2.10,MacIntel,60,,,,,,,,,,,,,,,,,,,,l,1.463,1,3,1,,,,,,,,,,d,5.688,0,1,0,0,0,0,1,,,,,,,
,,,,,,,,,,,,,,,,167,1,2023-02-24_12h33.40.159,Online_SceneSrcMD_R,2020.2.10,MacIntel,60,,,,,,,,,,,,,,,,,,,,,,,,,0,3,3,3,1,E1-6244_Rec.png,1,E1-6244_SrcRec.png,0,,,,,,,,,,,,,,,,
,,,,,,,,,,,,,,,,167,1,2023-02-24_12h33.40.159,Online_SceneSrcMD_R,2020.2.10,MacIntel,60,,,,,,,,,,,,,,,,,,,,l,1.47,1,3,1,,,,,,,,,,k,2.133,1,2,0,0,0,0,1,,,,,,,
,,,,,,,,,,,,,,,,167,1,2023-02-24_12h33.40.159,Online_SceneSrcMD_R,2020.2.10,MacIntel,60,,,,,,,,,,,,,,,,,,,,,,,,,0,4,4,4,1,N1-7495_Rec.png,1,N1-7495Real.png,1,,,,,,,,,,,,,,,,
,,,,,,,,,,,,,,,,167,1,2023-02-24_12h33.40.159,Online_SceneSrcMD_R,2020.2.10,MacIntel,60,,,,,,,,,,,,,,,,,,,,l,1.795,1,3,1,,,,,,,,,,l,2.9,1,3,0,0,0,0,1,,,,,,,
,,,,,,,,,,,,,,,,167,1,2023-02-24_12h33.40.159,Online_SceneSrcMD_R,2020.2.10,MacIntel,60,,,,,,,,,,,,,,,,,,,,,,,,,0,5,5,5,1,E1-6212_Rec.png,1,E1-6212Real.png,1,,,,,,,,,,,,,,,,
,,,,,,,,,,,,,,,,167,1,2023-02-24_12h33.40.159,Online_SceneSrcMD_R,2020.2.10,MacIntel,60,,,,,,,,,,,,,,,,,,,,k,2.741,1,2,1,,,,,,,,,,d,4.304,0,1,0,0,0,0,1,,,,,,,
,,,,,,,,,,,,,,,,167,1,2023-02-24_12h33.40.159,Online_SceneSrcMD_R,2020.2.10,MacIntel,60,,,,,,,,,,,,,,,,,,,,,,,,,0,6,6,6,1,N1-8460_Rec.png,1,N1-8460_SrcRec.png,0,,,,,,,,,,,,,,,,
,,,,,,,,,,,,,,,,167,1,2023-02-24_12h33.40.159,Online_SceneSrcMD_R,2020.2.10,MacIntel,60,,,,,,,,,,,,,,,,,,,,s,6.457,0,2,0,0,7,7,7,1,E2-7380_Rec.png,0,E2-7380_SrcRec.png,0,,,,,,,,,,,,,,,,
,,,,,,,,,,,,,,,,167,1,2023-02-24_12h33.40.159,Online_SceneSrcMD_R,2020.2.10,MacIntel,60,,,,,,,,,,,,,,,,,,,,k,2.638,1,2,1,,,,,,,,,,j,2.697,1,1,0,0,0,0,1,,,,,,,
,,,,,,,,,,,,,,,,167,1,2023-02-24_12h33.40.159,Online_SceneSrcMD_R,2020.2.10,MacIntel,60,,,,,,,,,,,,,,,,,,,,,,,,,0,8,8,8,1,N1-9210_Rec.png,1,N1-9210Real.png,1,,,,,,,,,,,,,,,,
,,,,,,,,,,,,,,,,167,1,2023-02-24_12h33.40.159,Online_SceneSrcMD_R,2020.2.10,MacIntel,60,,,,,,,,,,,,,,,,,,,,l,1.493,1,3,1,,,,,,,,,,d,2.618,0,1,0,0,0,0,1,,,,,,,
,,,,,,,,,,,,,,,,167,1,2023-02-24_12h33.40.159,Online_SceneSrcMD_R,2020.2.10,MacIntel,60,,,,,,,,,,,,,,,,,,,,,,,,,0,9,9,9,1,N1-1121_Rec.png,1,N1-1121_SrcRec.png,0,,,,,,,,,,,,,,,,
,,,,,,,,,,,,,,,,167,1,2023-02-24_12h33.40.159,Online_SceneSrcMD_R,2020.2.10,MacIntel,60,,,,,,,,,,,,,,,,,,,,s,3.275,0,2,0,0,10,10,10,1,E2-9920_Rec.png,0,E2-9920Real.png,1,,,,,,,,,,,,,,,,
,,,,,,,,,,,,,,,,167,1,2023-02-24_12h33.40.159,Online_SceneSrcMD_R,2020.2.10,MacIntel,60,,,,,,,,,,,,,,,,,,,,k,2.642,1,2,1,,,,,,,,,,d,2.017,0,1,0,0,0,0,1,,,,,,,
,,,,,,,,,,,,,,,,167,1,2023-02-24_12h33.40.159,Online_SceneSrcMD_R,2020.2.10,MacIntel,60,,,,,,,,,,,,,,,,,,,,,,,,,0,11,11,11,1,E1-6571_Rec.png,1,E1-6571_SrcRec.png,0,,,,,,,,,,,,,,,,
,,,,,,,,,,,,,,,,167,1,2023-02-24_12h33.40.159,Online_SceneSrcMD_R,2020.2.10,MacIntel,60,,,,,,,,,,,,,,,,,,,,s,5.156,0,2,0,0,12,12,12,1,E2-6540_Rec.png,0,E2-6540Real.png,1,,,,,,,,,,,,,,,,
,,,,,,,,,,,,,,,,167,1,2023-02-24_12h33.40.159,Online_SceneSrcMD_R,2020.2.10,MacIntel,60,,,,,,,,,,,,,,,,,,,,s,3.356,0,2,0,0,13,13,13,1,N2-5875_Rec.png,0,N2-5875Real.png,1,,,,,,,,,,,,,,,,
,,,,,,,,,,,,,,,,167,1,2023-02-24_12h33.40.159,Online_SceneSrcMD_R,2020.2.10,MacIntel,60,,,,,,,,,,,,,,,,,,,,s,3.374,0,2,0,0,14,14,14,1,E2-9500_Rec.png,0,E2-9500_SrcRec.png,0,,,,,,,,,,,,,,,,
,,,,,,,,,,,,,,,,167,1,2023-02-24_12h33.40.159,Online_SceneSrcMD_R,2020.2.10,MacIntel,60,,,,,,,,,,,,,,,,,,,,s,1.418,0,2,0,0,15,15,15,1,N2-1910_Rec.png,0,N2-1910_SrcRec.png,0,,,,,,,,,,,,,,,,
,,,,,,,,,,,,,,,,167,1,2023-02-24_12h33.40.159,Online_SceneSrcMD_R,2020.2.10,MacIntel,60,,,,,,,,,,,,,,,,,,,,d,2.143,0,1,0,0,16,16,16,1,N1-1670_Rec.png,1,N1-1670Real.png,1,,,,,,,,,,,,,,,,
,,,,,,,,,,,,,,,,167,1,2023-02-24_12h33.40.159,Online_SceneSrcMD_R,2020.2.10,MacIntel,60,,,,,,,,,,,,,,,,,,,,l,2.394,1,3,1,,,,,,,,,,j,4.405,1,1,0,0,0,0,1,,,,,,,
,,,,,,,,,,,,,,,,167,1,2023-02-24_12h33.40.159,Online_SceneSrcMD_R,2020.2.10,MacIntel,60,,,,,,,,,,,,,,,,,,,,,,,,,0,17,17,17,1,E1-3220_Rec.png,1,E1-3220Real.png,1,,,,,,,,,,,,,,,,
,,,,,,,,,,,,,,,,167,1,2023-02-24_12h33.40.159,Online_SceneSrcMD_R,2020.2.10,MacIntel,60,,,,,,,,,,,,,,,,,,,,l,1.102,1,3,1,,,,,,,,,,j,1.633,1,1,0,0,0,0,1,,,,,,,
,,,,,,,,,,,,,,,,167,1,2023-02-24_12h33.40.159,Online_SceneSrcMD_R,2020.2.10,MacIntel,60,,,,,,,,,,,,,,,,,,,,,,,,,0,18,18,18,1,E1-9561_Rec.png,1,E1-9561_SrcRec.png,0,,,,,,,,,,,,,,,,
,,,,,,,,,,,,,,,,167,1,2023-02-24_12h33.40.159,Online_SceneSrcMD_R,2020.2.10,MacIntel,60,,,,,,,,,,,,,,,,,,,,s,4.837,0,2,0,0,19,19,19,1,N2-9913_Rec.png,0,N2-9913_SrcRec.png,0,,,,,,,,,,,,,,,,
,,,,,,,,,,,,,,,,167,1,2023-02-24_12h33.40.159,Online_SceneSrcMD_R,2020.2.10,MacIntel,60,,,,,,,,,,,,,,,,,,,,,,,,,,,,,,,,,,,,,,,,,,,0,0,0,0,1,BlockOne.csv,Src_BlockOne.csv
,,,,,,,,,,,,,,,,167,1,2023-02-24_12h33.40.159,Online_SceneSrcMD_R,2020.2.10,MacIntel,60,,,,,,,,,,,,,,,,,,,,s,2.571,0,2,0,0,0,0,0,1,N2-7600_Rec.png,0,N2-7600Real.png,1,,,,,,,,,,,,,,,,
,,,,,,,,,,,,,,,,167,1,2023-02-24_12h33.40.159,Online_SceneSrcMD_R,2020.2.10,MacIntel,60,,,,,,,,,,,,,,,,,,,,k,1.921,1,2,1,,,,,,,,,,d,2.748,0,1,0,0,0,0,1,,,,,,,
,,,,,,,,,,,,,,,,167,1,2023-02-24_12h33.40.159,Online_SceneSrcMD_R,2020.2.10,MacIntel,60,,,,,,,,,,,,,,,,,,,,,,,,,0,1,1,1,1,N1-2383_Rec.png,1,N1-2383_SrcRec.png,0,,,,,,,,,,,,,,,,
,,,,,,,,,,,,,,,,167,1,2023-02-24_12h33.40.159,Online_SceneSrcMD_R,2020.2.10,MacIntel,60,,,,,,,,,,,,,,,,,,,,s,2.207,0,2,0,0,2,2,2,1,E2-1932_Rec.png,0,E2-1932Real.png,1,,,,,,,,,,,,,,,,
,,,,,,,,,,,,,,,,167,1,2023-02-24_12h33.40.159,Online_SceneSrcMD_R,2020.2.10,MacIntel,60,,,,,,,,,,,,,,,,,,,,l,1.352,1,3,1,,,,,,,,,,l,2.375,1,3,0,0,0,0,1,,,,,,,
,,,,,,,,,,,,,,,,167,1,2023-02-24_12h33.40.159,Online_SceneSrcMD_R,2020.2.10,MacIntel,60,,,,,,,,,,,,,,,,,,,,,,,,,0,3,3,3,1,N1-5731_Rec.png,1,N1-5731Real.png,1,,,,,,,,,,,,,,,,
,,,,,,,,,,,,,,,,167,1,2023-02-24_12h33.40.159,Online_SceneSrcMD_R,2020.2.10,MacIntel,60,,,,,,,,,,,,,,,,,,,,s,7.942,0,2,0,0,4,4,4,1,E2-3261_Rec.png,0,E2-3261_SrcRec.png,0,,,,,,,,,,,,,,,,
,,,,,,,,,,,,,,,,167,1,2023-02-24_12h33.40.159,Online_SceneSrcMD_R,2020.2.10,MacIntel,60,,,,,,,,,,,,,,,,,,,,l,2.22,1,3,1,,,,,,,,,,j,2.114,1,1,0,0,0,0,1,,,,,,,
,,,,,,,,,,,,,,,,167,1,2023-02-24_12h33.40.159,Online_SceneSrcMD_R,2020.2.10,MacIntel,60,,,,,,,,,,,,,,,,,,,,,,,,,0,5,5,5,1,E1-3015_Rec.png,1,E1-3015Real.png,1,,,,,,,,,,,,,,,,
,,,,,,,,,,,,,,,,167,1,2023-02-24_12h33.40.159,Online_SceneSrcMD_R,2020.2.10,MacIntel,60,,,,,,,,,,,,,,,,,,,,l,1.196,1,3,1,,,,,,,,,,d,1.602,0,1,0,0,0,0,1,,,,,,,
,,,,,,,,,,,,,,,,167,1,2023-02-24_12h33.40.159,Online_SceneSrcMD_R,2020.2.10,MacIntel,60,,,,,,,,,,,,,,,,,,,,,,,,,0,6,6,6,1,E1-9252_Rec.png,1,E1-9252_SrcRec.png,0,,,,,,,,,,,,,,,,
,,,,,,,,,,,,,,,,167,1,2023-02-24_12h33.40.159,Online_SceneSrcMD_R,2020.2.10,MacIntel,60,,,,,,,,,,,,,,,,,,,,s,1.817,0,2,0,0,7,7,7,1,N2-4603_Rec.png,0,N2-4603_SrcRec.png,0,,,,,,,,,,,,,,,,
,,,,,,,,,,,,,,,,167,1,2023-02-24_12h33.40.159,Online_SceneSrcMD_R,2020.2.10,MacIntel,60,,,,,,,,,,,,,,,,,,,,d,2.625,0,1,0,0,8,8,8,1,E1-9911_Rec.png,1,E1-9911Real.png,1,,,,,,,,,,,,,,,,
,,,,,,,,,,,,,,,,167,1,2023-02-24_12h33.40.159,Online_SceneSrcMD_R,2020.2.10,MacIntel,60,,,,,,,,,,,,,,,,,,,,s,3.468,0,2,0,0,9,9,9,1,E2-9265_Rec.png,0,E2-9265_SrcRec.png,0,,,,,,,,,,,,,,,,
,,,,,,,,,,,,,,,,167,1,2023-02-24_12h33.40.159,Online_SceneSrcMD_R,2020.2.10,MacIntel,60,,,,,,,,,,,,,,,,,,,,l,1.821,1,3,1,,,,,,,,,,j,3.03,1,1,0,0,0,0,1,,,,,,,
,,,,,,,,,,,,,,,,167,1,2023-02-24_12h33.40.159,Online_SceneSrcMD_R,2020.2.10,MacIntel,60,,,,,,,,,,,,,,,,,,,,,,,,,0,10,10,10,1,N1-2575_Rec.png,1,N1-2575Real.png,1,,,,,,,,,,,,,,,,
,,,,,,,,,,,,,,,,167,1,2023-02-24_12h33.40.159,Online_SceneSrcMD_R,2020.2.10,MacIntel,60,,,,,,,,,,,,,,,,,,,,d,3.537,0,1,0,0,11,11,11,1,N2-1600_Rec.png,0,N2-1600_SrcRec.png,0,,,,,,,,,,,,,,,,
,,,,,,,,,,,,,,,,167,1,2023-02-24_12h33.40.159,Online_SceneSrcMD_R,2020.2.10,MacIntel,60,,,,,,,,,,,,,,,,,,,,s,2.125,0,2,0,0,12,12,12,1,E2-6415_Rec.png,0,E2-6415Real.png,1,,,,,,,,,,,,,,,,
,,,,,,,,,,,,,,,,167,1,2023-02-24_12h33.40.159,Online_SceneSrcMD_R,2020.2.10,MacIntel,60,,,,,,,,,,,,,,,,,,,,d,4.823,0,1,0,0,13,13,13,1,N2-8465_Rec.png,0,N2-8465Real.png,1,,,,,,,,,,,,,,,,
,,,,,,,,,,,,,,,,167,1,2023-02-24_12h33.40.159,Online_SceneSrcMD_R,2020.2.10,MacIntel,60,,,,,,,,,,,,,,,,,,,,k,1.222,1,2,1,,,,,,,,,,d,2.675,0,1,0,0,0,0,1,,,,,,,
,,,,,,,,,,,,,,,,167,1,2023-02-24_12h33.40.159,Online_SceneSrcMD_R,2020.2.10,MacIntel,60,,,,,,,,,,,,,,,,,,,,,,,,,0,14,14,14,1,N1-2500_Rec.png,1,N1-2500_SrcRec.png,0,,,,,,,,,,,,,,,,
,,,,,,,,,,,,,,,,167,1,2023-02-24_12h33.40.159,Online_SceneSrcMD_R,2020.2.10,MacIntel,60,,,,,,,,,,,,,,,,,,,,l,1.287,1,3,1,,,,,,,,,,j,1.783,1,1,0,0,0,0,1,,,,,,,
,,,,,,,,,,,,,,,,167,1,2023-02-24_12h33.40.159,Online_SceneSrcMD_R,2020.2.10,MacIntel,60,,,,,,,,,,,,,,,,,,,,,,,,,0,15,15,15,1,E1-3280_Rec.png,1,E1-3280_SrcRec.png,0,,,,,,,,,,,,,,,,
,,,,,,,,,,,,,,,,167,1,2023-02-24_12h33.40.159,Online_SceneSrcMD_R,2020.2.10,MacIntel,60,,,,,,,,,,,,,,,,,,,,k,2.22,1,2,1,,,,,,,,,,k,2.418,1,2,0,0,0,0,1,,,,,,,
,,,,,,,,,,,,,,,,167,1,2023-02-24_12h33.40.159,Online_SceneSrcMD_R,2020.2.10,MacIntel,60,,,,,,,,,,,,,,,,,,,,,,,,,0,16,16,16,1,N1-1812_Rec.png,1,N1-1812Real.png,1,,,,,,,,,,,,,,,,
,,,,,,,,,,,,,,,,167,1,2023-02-24_12h33.40.159,Online_SceneSrcMD_R,2020.2.10,MacIntel,60,,,,,,,,,,,,,,,,,,,,a,2.372,0,3,0,0,17,17,17,1,E2-3350_Rec.png,0,E2-3350Real.png,1,,,,,,,,,,,,,,,,
,,,,,,,,,,,,,,,,167,1,2023-02-24_12h33.40.159,Online_SceneSrcMD_R,2020.2.10,MacIntel,60,,,,,,,,,,,,,,,,,,,,s,2.941,0,2,0,0,18,18,18,1,N2-2840_Rec.png,0,N2-2840_SrcRec.png,0,,,,,,,,,,,,,,,,
,,,,,,,,,,,,,,,,167,1,2023-02-24_12h33.40.159,Online_SceneSrcMD_R,2020.2.10,MacIntel,60,,,,,,,,,,,,,,,,,,,,s,2.408,0,2,0,0,19,19,19,1,E1-9254_Rec.png,1,E1-9254_SrcRec.png,0,,,,,,,,,,,,,,,,
,,,,,,,,,,,,,,,,167,1,2023-02-24_12h33.40.159,Online_SceneSrcMD_R,2020.2.10,MacIntel,60,,,,,,,,,,,,,,,,,,,,,,,,,,,,,,,,,,,,,,,,,,,0,1,1,1,1,BlockTwo.csv,Src_BlockTwo.csv
,,,,,,,,,,,,,,,,167,1,2023-02-24_12h33.40.159,Online_SceneSrcMD_R,2020.2.10,MacIntel,60,,,,,,,,,,,,,,,,,,,,l,1.237,1,3,1,,,,,,,,,,j,3.576,1,1,0,0,0,0,1,,,,,,,
,,,,,,,,,,,,,,,,167,1,2023-02-24_12h33.40.159,Online_SceneSrcMD_R,2020.2.10,MacIntel,60,,,,,,,,,,,,,,,,,,,,,,,,,0,0,0,0,1,E1-1310_Rec.png,1,E1-1310Real.png,1,,,,,,,,,,,,,,,,
,,,,,,,,,,,,,,,,167,1,2023-02-24_12h33.40.159,Online_SceneSrcMD_R,2020.2.10,MacIntel,60,,,,,,,,,,,,,,,,,,,,k,1.572,1,2,1,,,,,,,,,,k,1.774,1,2,0,0,0,0,1,,,,,,,
,,,,,,,,,,,,,,,,167,1,2023-02-24_12h33.40.159,Online_SceneSrcMD_R,2020.2.10,MacIntel,60,,,,,,,,,,,,,,,,,,,,,,,,,0,1,1,1,1,E1-2800_Rec.png,1,E1-2800_SrcRec.png,0,,,,,,,,,,,,,,,,
,,,,,,,,,,,,,,,,167,1,2023-02-24_12h33.40.159,Online_SceneSrcMD_R,2020.2.10,MacIntel,60,,,,,,,,,,,,,,,,,,,,l,1.275,1,3,1,,,,,,,,,,j,1.518,1,1,0,0,0,0,1,,,,,,,
,,,,,,,,,,,,,,,,167,1,2023-02-24_12h33.40.159,Online_SceneSrcMD_R,2020.2.10,MacIntel,60,,,,,,,,,,,,,,,,,,,,,,,,,0,2,2,2,1,E1-2352_2_Rec.png,1,E1-2352_2Real.png,1,,,,,,,,,,,,,,,,
,,,,,,,,,,,,,,,,167,1,2023-02-24_12h33.40.159,Online_SceneSrcMD_R,2020.2.10,MacIntel,60,,,,,,,,,,,,,,,,,,,,s,1.7,0,2,0,0,3,3,3,1,N2-8160_Rec.png,0,N2-8160Real.png,1,,,,,,,,,,,,,,,,
,,,,,,,,,,,,,,,,167,1,2023-02-24_12h33.40.159,Online_SceneSrcMD_R,2020.2.10,MacIntel,60,,,,,,,,,,,,,,,,,,,,j,2.421,1,1,1,,,,,,,,,,d,2.065,0,1,0,0,0,0,1,,,,,,,
,,,,,,,,,,,,,,,,167,1,2023-02-24_12h33.40.159,Online_SceneSrcMD_R,2020.2.10,MacIntel,60,,,,,,,,,,,,,,,,,,,,,,,,,0,4,4,4,1,N1-2190_Rec.png,1,N1-2190_SrcRec.png,0,,,,,,,,,,,,,,,,
,,,,,,,,,,,,,,,,167,1,2023-02-24_12h33.40.159,Online_SceneSrcMD_R,2020.2.10,MacIntel,60,,,,,,,,,,,,,,,,,,,,k,1.898,1,2,1,,,,,,,,,,j,1.603,1,1,0,0,0,0,1,,,,,,,
,,,,,,,,,,,,,,,,167,1,2023-02-24_12h33.40.159,Online_SceneSrcMD_R,2020.2.10,MacIntel,60,,,,,,,,,,,,,,,,,,,,,,,,,0,5,5,5,1,E1-3550_Rec.png,1,E1-3550_SrcRec.png,0,,,,,,,,,,,,,,,,
,,,,,,,,,,,,,,,,167,1,2023-02-24_12h33.40.159,Online_SceneSrcMD_R,2020.2.10,MacIntel,60,,,,,,,,,,,,,,,,,,,,s,1.307,0,2,0,0,6,6,6,1,N2-5395_Rec.png,0,N2-5395Real.png,1,,,,,,,,,,,,,,,,
,,,,,,,,,,,,,,,,167,1,2023-02-24_12h33.40.159,Online_SceneSrcMD_R,2020.2.10,MacIntel,60,,,,,,,,,,,,,,,,,,,,l,1.687,1,3,1,,,,,,,,,,a,2.716,0,3,0,0,0,0,1,,,,,,,
,,,,,,,,,,,,,,,,167,1,2023-02-24_12h33.40.159,Online_SceneSrcMD_R,2020.2.10,MacIntel,60,,,,,,,,,,,,,,,,,,,,,,,,,0,7,7,7,1,N1-7503_Rec.png,1,N1-7503_SrcRec.png,0,,,,,,,,,,,,,,,,
,,,,,,,,,,,,,,,,167,1,2023-02-24_12h33.40.159,Online_SceneSrcMD_R,2020.2.10,MacIntel,60,,,,,,,,,,,,,,,,,,,,l,1.667,1,3,1,,,,,,,,,,k,2.646,1,2,0,0,0,0,1,,,,,,,
,,,,,,,,,,,,,,,,167,1,2023-02-24_12h33.40.159,Online_SceneSrcMD_R,2020.2.10,MacIntel,60,,,,,,,,,,,,,,,,,,,,,,,,,0,8,8,8,1,N1-2597_Rec.png,1,N1-2597Real.png,1,,,,,,,,,,,,,,,,
,,,,,,,,,,,,,,,,167,1,2023-02-24_12h33.40.159,Online_SceneSrcMD_R,2020.2.10,MacIntel,60,,,,,,,,,,,,,,,,,,,,s,1.869,0,2,0,0,9,9,9,1,E2-9140_Rec.png,0,E2-9140Real.png,1,,,,,,,,,,,,,,,,
,,,,,,,,,,,,,,,,167,1,2023-02-24_12h33.40.159,Online_SceneSrcMD_R,2020.2.10,MacIntel,60,,,,,,,,,,,,,,,,,,,,k,1.359,1,2,1,,,,,,,,,,j,2.556,1,1,0,0,0,0,1,,,,,,,
,,,,,,,,,,,,,,,,167,1,2023-02-24_12h33.40.159,Online_SceneSrcMD_R,2020.2.10,MacIntel,60,,,,,,,,,,,,,,,,,,,,,,,,,0,10,10,10,1,E1-3160_Rec.png,1,E1-3160_SrcRec.png,0,,,,,,,,,,,,,,,,
,,,,,,,,,,,,,,,,167,1,2023-02-24_12h33.40.159,Online_SceneSrcMD_R,2020.2.10,MacIntel,60,,,,,,,,,,,,,,,,,,,,s,3.257,0,2,0,0,11,11,11,1,N1-5471_Rec.png,1,N1-5471_SrcRec.png,0,,,,,,,,,,,,,,,,
,,,,,,,,,,,,,,,,167,1,2023-02-24_12h33.40.159,Online_SceneSrcMD_R,2020.2.10,MacIntel,60,,,,,,,,,,,,,,,,,,,,l,1.508,1,3,1,,,,,,,,,,d,1.654,0,1,0,0,0,0,1,,,,,,,
,,,,,,,,,,,,,,,,167,1,2023-02-24_12h33.40.159,Online_SceneSrcMD_R,2020.2.10,MacIntel,60,,,,,,,,,,,,,,,,,,,,,,,,,0,12,12,12,1,N1-4605_Rec.png,1,N1-4605Real.png,1,,,,,,,,,,,,,,,,
,,,,,,,,,,,,,,,,167,1,2023-02-24_12h33.40.159,Online_SceneSrcMD_R,2020.2.10,MacIntel,60,,,,,,,,,,,,,,,,,,,,s,1.889,0,2,0,0,13,13,13,1,N2-2221_Rec.png,0,N2-2221_SrcRec.png,0,,,,,,,,,,,,,,,,
,,,,,,,,,,,,,,,,167,1,2023-02-24_12h33.40.159,Online_SceneSrcMD_R,2020.2.10,MacIntel,60,,,,,,,,,,,,,,,,,,,,k,2.303,1,2,1,,,,,,,,,,d,1.483,0,1,0,0,0,0,1,,,,,,,
,,,,,,,,,,,,,,,,167,1,2023-02-24_12h33.40.159,Online_SceneSrcMD_R,2020.2.10,MacIntel,60,,,,,,,,,,,,,,,,,,,,,,,,,0,14,14,14,1,E2-3400_Rec.png,0,E2-3400Real.png,1,,,,,,,,,,,,,,,,
,,,,,,,,,,,,,,,,167,1,2023-02-24_12h33.40.159,Online_SceneSrcMD_R,2020.2.10,MacIntel,60,,,,,,,,,,,,,,,,,,,,s,7.155,0,2,0,0,15,15,15,1,N2-7546_Rec.png,0,N2-7546Real.png,1,,,,,,,,,,,,,,,,
,,,,,,,,,,,,,,,,167,1,2023-02-24_12h33.40.159,Online_SceneSrcMD_R,2020.2.10,MacIntel,60,,,,,,,,,,,,,,,,,,,,s,1.923,0,2,0,0,16,16,16,1,E2-3500_Rec.png,0,E2-3500_SrcRec.png,0,,,,,,,,,,,,,,,,
,,,,,,,,,,,,,,,,167,1,2023-02-24_12h33.40.159,Online_SceneSrcMD_R,2020.2.10,MacIntel,60,,,,,,,,,,,,,,,,,,,,d,1.475,0,1,0,0,17,17,17,1,N2-2518_Rec.png,0,N2-2518_SrcRec.png,0,,,,,,,,,,,,,,,,
,,,,,,,,,,,,,,,,167,1,2023-02-24_12h33.40.159,Online_SceneSrcMD_R,2020.2.10,MacIntel,60,,,,,,,,,,,,,,,,,,,,s,1.702,0,2,0,0,18,18,18,1,E2-9622_Rec.png,0,E2-9622Real.png,1,,,,,,,,,,,,,,,,
,,,,,,,,,,,,,,,,167,1,2023-02-24_12h33.40.159,Online_SceneSrcMD_R,2020.2.10,MacIntel,60,,,,,,,,,,,,,,,,,,,,s,1.206,0,2,0,0,19,19,19,1,E2-9040_Rec.png,0,E2-9040_SrcRec.png,0,,,,,,,,,,,,,,,,
,,,,,,,,,,,,,,,,167,1,2023-02-24_12h33.40.159,Online_SceneSrcMD_R,2020.2.10,MacIntel,60,,,,,,,,,,,,,,,,,,,,,,,,,,,,,,,,,,,,,,,,,,,0,2,2,2,1,BlockThree.csv,Src_BlockThree.csv
,,,,,,,,,,,,,,,,167,1,2023-02-24_12h33.40.159,Online_SceneSrcMD_R,2020.2.10,MacIntel,60,,,,,,,,,,,,,,,,,,,,s,1.582,0,2,0,0,0,0,0,1,E2-9230_Rec.png,0,E2-9230Real.png,1,,,,,,,,,,,,,,,,
,,,,,,,,,,,,,,,,167,1,2023-02-24_12h33.40.159,Online_SceneSrcMD_R,2020.2.10,MacIntel,60,,,,,,,,,,,,,,,,,,,,s,0.741,0,2,0,0,1,1,1,1,E2-3170_Rec.png,0,E2-3170_SrcRec.png,0,,,,,,,,,,,,,,,,
,,,,,,,,,,,,,,,,167,1,2023-02-24_12h33.40.159,Online_SceneSrcMD_R,2020.2.10,MacIntel,60,,,,,,,,,,,,,,,,,,,,k,2.306,1,2,1,,,,,,,,,,j,1.943,1,1,0,0,0,0,1,,,,,,,
,,,,,,,,,,,,,,,,167,1,2023-02-24_12h33.40.159,Online_SceneSrcMD_R,2020.2.10,MacIntel,60,,,,,,,,,,,,,,,,,,,,,,,,,0,2,2,2,1,N1-2870_Rec.png,1,N1-2870Real.png,1,,,,,,,,,,,,,,,,
,,,,,,,,,,,,,,,,167,1,2023-02-24_12h33.40.159,Online_SceneSrcMD_R,2020.2.10,MacIntel,60,,,,,,,,,,,,,,,,,,,,s,1.038,0,2,0,0,3,3,3,1,N2-1661_Rec.png,0,N2-1661_SrcRec.png,0,,,,,,,,,,,,,,,,
,,,,,,,,,,,,,,,,167,1,2023-02-24_12h33.40.159,Online_SceneSrcMD_R,2020.2.10,MacIntel,60,,,,,,,,,,,,,,,,,,,,s,0.778,0,2,0,0,4,4,4,1,E1-3061_Rec.png,1,E1-3061Real.png,1,,,,,,,,,,,,,,,,
,,,,,,,,,,,,,,,,167,1,2023-02-24_12h33.40.159,Online_SceneSrcMD_R,2020.2.10,MacIntel,60,,,,,,,,,,,,,,,,,,,,k,3.419,1,2,1,,,,,,,,,,j,1.864,1,1,0,0,0,0,1,,,,,,,
,,,,,,,,,,,,,,,,167,1,2023-02-24_12h33.40.159,Online_SceneSrcMD_R,2020.2.10,MacIntel,60,,,,,,,,,,,,,,,,,,,,,,,,,0,5,5,5,1,N1-2393_Rec.png,1,N1-2393Real.png,1,,,,,,,,,,,,,,,,
,,,,,,,,,,,,,,,,167,1,2023-02-24_12h33.40.159,Online_SceneSrcMD_R,2020.2.10,MacIntel,60,,,,,,,,,,,,,,,,,,,,s,1.637,0,2,0,0,6,6,6,1,N2-2616_Rec.png,0,N2-2616_SrcRec.png,0,,,,,,,,,,,,,,,,
,,,,,,,,,,,,,,,,167,1,2023-02-24_12h33.40.159,Online_SceneSrcMD_R,2020.2.10,MacIntel,60,,,,,,,,,,,,,,,,,,,,s,3.769,0,2,0,0,7,7,7,1,E2-8230_Rec.png,0,E2-8230_SrcRec.png,0,,,,,,,,,,,,,,,,
,,,,,,,,,,,,,,,,167,1,2023-02-24_12h33.40.159,Online_SceneSrcMD_R,2020.2.10,MacIntel,60,,,,,,,,,,,,,,,,,,,,k,1.176,1,2,1,,,,,,,,,,j,2.225,1,1,0,0,0,0,1,,,,,,,
,,,,,,,,,,,,,,,,167,1,2023-02-24_12h33.40.159,Online_SceneSrcMD_R,2020.2.10,MacIntel,60,,,,,,,,,,,,,,,,,,,,,,,,,0,8,8,8,1,E1-1525_Rec.png,1,E1-1525Real.png,1,,,,,,,,,,,,,,,,
,,,,,,,,,,,,,,,,167,1,2023-02-24_12h33.40.159,Online_SceneSrcMD_R,2020.2.10,MacIntel,60,,,,,,,,,,,,,,,,,,,,k,1.204,1,2,1,,,,,,,,,,k,4.287,1,2,0,0,0,0,1,,,,,,,
,,,,,,,,,,,,,,,,167,1,2023-02-24_12h33.40.159,Online_SceneSrcMD_R,2020.2.10,MacIntel,60,,,,,,,,,,,,,,,,,,,,,,,,,0,9,9,9,1,N1-8311_Rec.png,1,N1-8311Real.png,1,,,,,,,,,,,,,,,,
,,,,,,,,,,,,,,,,167,1,2023-02-24_12h33.40.159,Online_SceneSrcMD_R,2020.2.10,MacIntel,60,,,,,,,,,,,,,,,,,,,,j,3.656,1,1,1,,,,,,,,,,d,1.393,0,1,0,0,0,0,1,,,,,,,
,,,,,,,,,,,,,,,,167,1,2023-02-24_12h33.40.159,Online_SceneSrcMD_R,2020.2.10,MacIntel,60,,,,,,,,,,,,,,,,,,,,,,,,,0,10,10,10,1,N2-2235_Rec.png,0,N2-2235_SrcRec.png,0,,,,,,,,,,,,,,,,
,,,,,,,,,,,,,,,,167,1,2023-02-24_12h33.40.159,Online_SceneSrcMD_R,2020.2.10,MacIntel,60,,,,,,,,,,,,,,,,,,,,s,1.308,0,2,0,0,11,11,11,1,E2-3230_Rec.png,0,E2-3230_SrcRec.png,0,,,,,,,,,,,,,,,,
,,,,,,,,,,,,,,,,167,1,2023-02-24_12h33.40.159,Online_SceneSrcMD_R,2020.2.10,MacIntel,60,,,,,,,,,,,,,,,,,,,,s,2.2,0,2,0,0,12,12,12,1,N2-2594_Rec.png,0,N2-2594Real.png,1,,,,,,,,,,,,,,,,
,,,,,,,,,,,,,,,,167,1,2023-02-24_12h33.40.159,Online_SceneSrcMD_R,2020.2.10,MacIntel,60,,,,,,,,,,,,,,,,,,,,s,2.536,0,2,0,0,13,13,13,1,N2-2512_Rec.png,0,N2-2512_SrcRec.png,0,,,,,,,,,,,,,,,,
,,,,,,,,,,,,,,,,167,1,2023-02-24_12h33.40.159,Online_SceneSrcMD_R,2020.2.10,MacIntel,60,,,,,,,,,,,,,,,,,,,,l,1.317,1,3,1,,,,,,,,,,j,1.288,1,1,0,0,0,0,1,,,,,,,
,,,,,,,,,,,,,,,,167,1,2023-02-24_12h33.40.159,Online_SceneSrcMD_R,2020.2.10,MacIntel,60,,,,,,,,,,,,,,,,,,,,,,,,,0,14,14,14,1,E1-3168_Rec.png,1,E1-3168Real.png,1,,,,,,,,,,,,,,,,
,,,,,,,,,,,,,,,,167,1,2023-02-24_12h33.40.159,Online_SceneSrcMD_R,2020.2.10,MacIntel,60,,,,,,,,,,,,,,,,,,,,l,1.411,1,3,1,,,,,,,,,,j,0.944,1,1,0,0,0,0,1,,,,,,,
,,,,,,,,,,,,,,,,167,1,2023-02-24_12h33.40.159,Online_SceneSrcMD_R,2020.2.10,MacIntel,60,,,,,,,,,,,,,,,,,,,,,,,,,0,15,15,15,1,E1-2053_Rec.png,1,E1-2053_SrcRec.png,0,,,,,,,,,,,,,,,,
,,,,,,,,,,,,,,,,167,1,2023-02-24_12h33.40.159,Online_SceneSrcMD_R,2020.2.10,MacIntel,60,,,,,,,,,,,,,,,,,,,,s,2.383,0,2,0,0,16,16,16,1,N1-2605_Rec.png,1,N1-2605Real.png,1,,,,,,,,,,,,,,,,
,,,,,,,,,,,,,,,,167,1,2023-02-24_12h33.40.159,Online_SceneSrcMD_R,2020.2.10,MacIntel,60,,,,,,,,,,,,,,,,,,,,s,1.476,0,2,0,0,17,17,17,1,E2-2716_Rec.png,0,E2-2716Real.png,1,,,,,,,,,,,,,,,,
,,,,,,,,,,,,,,,,167,1,2023-02-24_12h33.40.159,Online_SceneSrcMD_R,2020.2.10,MacIntel,60,,,,,,,,,,,,,,,,,,,,s,1.061,0,2,0,0,18,18,18,1,N1-5455_Rec.png,1,N1-5455_SrcRec.png,0,,,,,,,,,,,,,,,,
,,,,,,,,,,,,,,,,167,1,2023-02-24_12h33.40.159,Online_SceneSrcMD_R,2020.2.10,MacIntel,60,,,,,,,,,,,,,,,,,,,,l,1.076,1,3,1,,,,,,,,,,d,1.895,0,1,0,0,0,0,1,,,,,,,
,,,,,,,,,,,,,,,,167,1,2023-02-24_12h33.40.159,Online_SceneSrcMD_R,2020.2.10,MacIntel,60,,,,,,,,,,,,,,,,,,,,,,,,,0,19,19,19,1,E1-3068_Rec.png,1,E1-3068_SrcRec.png,0,,,,,,,,,,,,,,,,
,,,,,,,,,,,,,,,,167,1,2023-02-24_12h33.40.159,Online_SceneSrcMD_R,2020.2.10,MacIntel,60,,,,,,,,,,,,,,,,,,,,,,,,,,,,,,,,,,,,,,,,,,,0,3,3,3,1,BlockFour.csv,Src_BlockFour.csv
,,,,,,,,,,,,,,,,167,1,2023-02-24_12h33.40.159,Online_SceneSrcMD_R,2020.2.10,MacIntel,60,,,,,,,,,,,,,,,,,,,,s,1.357,0,2,0,0,0,0,0,1,N2-2606_Rec.png,0,N2-2606Real.png,1,,,,,,,,,,,,,,,,
,,,,,,,,,,,,,,,,167,1,2023-02-24_12h33.40.159,Online_SceneSrcMD_R,2020.2.10,MacIntel,60,,,,,,,,,,,,,,,,,,,,s,1.806,0,2,0,0,1,1,1,1,E2-9410_Rec.png,0,E2-9410Real.png,1,,,,,,,,,,,,,,,,
,,,,,,,,,,,,,,,,167,1,2023-02-24_12h33.40.159,Online_SceneSrcMD_R,2020.2.10,MacIntel,60,,,,,,,,,,,,,,,,,,,,d,2.123,0,1,0,0,2,2,2,1,N1-9070_Rec.png,1,N1-9070_SrcRec.png,0,,,,,,,,,,,,,,,,
,,,,,,,,,,,,,,,,167,1,2023-02-24_12h33.40.159,Online_SceneSrcMD_R,2020.2.10,MacIntel,60,,,,,,,,,,,,,,,,,,,,s,1.217,0,2,0,0,3,3,3,1,E2-9340_Rec.png,0,E2-9340_SrcRec.png,0,,,,,,,,,,,,,,,,
,,,,,,,,,,,,,,,,167,1,2023-02-24_12h33.40.159,Online_SceneSrcMD_R,2020.2.10,MacIntel,60,,,,,,,,,,,,,,,,,,,,s,1.271,0,2,0,0,4,4,4,1,N2-7560_Rec.png,0,N2-7560Real.png,1,,,,,,,,,,,,,,,,
,,,,,,,,,,,,,,,,167,1,2023-02-24_12h33.40.159,Online_SceneSrcMD_R,2020.2.10,MacIntel,60,,,,,,,,,,,,,,,,,,,,s,1.237,0,2,0,0,5,5,5,1,E2-2900_1_Rec.png,0,E2-2900_1Real.png,1,,,,,,,,,,,,,,,,
,,,,,,,,,,,,,,,,167,1,2023-02-24_12h33.40.159,Online_SceneSrcMD_R,2020.2.10,MacIntel,60,,,,,,,,,,,,,,,,,,,,s,1.219,0,2,0,0,6,6,6,1,N2-7550_Rec.png,0,N2-7550_SrcRec.png,0,,,,,,,,,,,,,,,,
,,,,,,,,,,,,,,,,167,1,2023-02-24_12h33.40.159,Online_SceneSrcMD_R,2020.2.10,MacIntel,60,,,,,,,,,,,,,,,,,,,,d,2.021,0,1,0,0,7,7,7,1,N1-5390_Rec.png,1,N1-5390Real.png,1,,,,,,,,,,,,,,,,
,,,,,,,,,,,,,,,,167,1,2023-02-24_12h33.40.159,Online_SceneSrcMD_R,2020.2.10,MacIntel,60,,,,,,,,,,,,,,,,,,,,l,1.02,1,3,1,,,,,,,,,,d,1.218,0,1,0,0,0,0,1,,,,,,,
,,,,,,,,,,,,,,,,167,1,2023-02-24_12h33.40.159,Online_SceneSrcMD_R,2020.2.10,MacIntel,60,,,,,,,,,,,,,,,,,,,,,,,,,0,8,8,8,1,E1-3150_Rec.png,1,E1-3150_SrcRec.png,0,,,,,,,,,,,,,,,,
,,,,,,,,,,,,,,,,167,1,2023-02-24_12h33.40.159,Online_SceneSrcMD_R,2020.2.10,MacIntel,60,,,,,,,,,,,,,,,,,,,,s,1.192,0,2,0,0,9,9,9,1,E2-9582_Rec.png,0,E2-9582Real.png,1,,,,,,,,,,,,,,,,
,,,,,,,,,,,,,,,,167,1,2023-02-24_12h33.40.159,Online_SceneSrcMD_R,2020.2.10,MacIntel,60,,,,,,,,,,,,,,,,,,,,s,3.971,0,2,0,0,10,10,10,1,E2-9420_Rec.png,0,E2-9420_SrcRec.png,0,,,,,,,,,,,,,,,,
,,,,,,,,,,,,,,,,167,1,2023-02-24_12h33.40.159,Online_SceneSrcMD_R,2020.2.10,MacIntel,60,,,,,,,,,,,,,,,,,,,,j,1.855,1,1,1,,,,,,,,,,d,1.501,0,1,0,0,0,0,1,,,,,,,
,,,,,,,,,,,,,,,,167,1,2023-02-24_12h33.40.159,Online_SceneSrcMD_R,2020.2.10,MacIntel,60,,,,,,,,,,,,,,,,,,,,,,,,,0,11,11,11,1,N1-2485_Rec.png,1,N1-2485_SrcRec.png,0,,,,,,,,,,,,,,,,
,,,,,,,,,,,,,,,,167,1,2023-02-24_12h33.40.159,Online_SceneSrcMD_R,2020.2.10,MacIntel,60,,,,,,,,,,,,,,,,,,,,s,1.338,0,2,0,0,12,12,12,1,N2-7491_Rec.png,0,N2-7491Real.png,1,,,,,,,,,,,,,,,,
,,,,,,,,,,,,,,,,167,1,2023-02-24_12h33.40.159,Online_SceneSrcMD_R,2020.2.10,MacIntel,60,,,,,,,,,,,,,,,,,,,,l,1.284,1,3,1,,,,,,,,,,k,2.151,1,2,0,0,0,0,1,,,,,,,
,,,,,,,,,,,,,,,,167,1,2023-02-24_12h33.40.159,Online_SceneSrcMD_R,2020.2.10,MacIntel,60,,,,,,,,,,,,,,,,,,,,,,,,,0,13,13,13,1,E1-2691_Rec.png,1,E1-2691Real.png,1,,,,,,,,,,,,,,,,
,,,,,,,,,,,,,,,,167,1,2023-02-24_12h33.40.159,Online_SceneSrcMD_R,2020.2.10,MacIntel,60,,,,,,,,,,,,,,,,,,,,s,1.496,0,2,0,0,14,14,14,1,N1-7640_Rec.png,1,N1-7640_SrcRec.png,0,,,,,,,,,,,,,,,,
,,,,,,,,,,,,,,,,167,1,2023-02-24_12h33.40.159,Online_SceneSrcMD_R,2020.2.10,MacIntel,60,,,,,,,,,,,,,,,,,,,,l,1.282,1,3,1,,,,,,,,,,j,2.246,1,1,0,0,0,0,1,,,,,,,
,,,,,,,,,,,,,,,,167,1,2023-02-24_12h33.40.159,Online_SceneSrcMD_R,2020.2.10,MacIntel,60,,,,,,,,,,,,,,,,,,,,,,,,,0,15,15,15,1,E1-9253_Rec.png,1,E1-9253_SrcRec.png,0,,,,,,,,,,,,,,,,
,,,,,,,,,,,,,,,,167,1,2023-02-24_12h33.40.159,Online_SceneSrcMD_R,2020.2.10,MacIntel,60,,,,,,,,,,,,,,,,,,,,s,1.923,0,2,0,0,16,16,16,1,N2-6570_2_Rec.png,0,N2-6570_2Real.png,1,,,,,,,,,,,,,,,,
,,,,,,,,,,,,,,,,167,1,2023-02-24_12h33.40.159,Online_SceneSrcMD_R,2020.2.10,MacIntel,60,,,,,,,,,,,,,,,,,,,,l,8.437,1,3,1,,,,,,,,,,j,1.467,1,1,0,0,0,0,1,,,,,,,
,,,,,,,,,,,,,,,,167,1,2023-02-24_12h33.40.159,Online_SceneSrcMD_R,2020.2.10,MacIntel,60,,,,,,,,,,,,,,,,,,,,,,,,,0,17,17,17,1,E1-9250_Rec.png,1,E1-9250Real.png,1,,,,,,,,,,,,,,,,
,,,,,,,,,,,,,,,,167,1,2023-02-24_12h33.40.159,Online_SceneSrcMD_R,2020.2.10,MacIntel,60,,,,,,,,,,,,,,,,,,,,k,6.835,1,2,1,,,,,,,,,,k,4.955,1,2,0,0,0,0,1,,,,,,,
,,,,,,,,,,,,,,,,167,1,2023-02-24_12h33.40.159,Online_SceneSrcMD_R,2020.2.10,MacIntel,60,,,,,,,,,,,,,,,,,,,,,,,,,0,18,18,18,1,E1-9600_Rec.png,1,E1-9600_SrcRec.png,0,,,,,,,,,,,,,,,,
,,,,,,,,,,,,,,,,167,1,2023-02-24_12h33.40.159,Online_SceneSrcMD_R,2020.2.10,MacIntel,60,,,,,,,,,,,,,,,,,,,,k,2.204,1,2,1,,,,,,,,,,d,4.557,0,1,0,0,0,0,1,,,,,,,
,,,,,,,,,,,,,,,,167,1,2023-02-24_12h33.40.159,Online_SceneSrcMD_R,2020.2.10,MacIntel,60,,,,,,,,,,,,,,,,,,,,,,,,,0,19,19,19,1,N1-1947_Rec.png,1,N1-1947_SrcRec.png,0,,,,,,,,,,,,,,,,
,,,,,,,,,,,,,,,,167,1,2023-02-24_12h33.40.159,Online_SceneSrcMD_R,2020.2.10,MacIntel,60,,,,,,,,,,,,,,,,,,,,,,,,,,,,,,,,,,,,,,,,,,,0,4,4,4,1,BlockFive.csv,Src_BlockFive.csv
,,,,,,,,,,,,,,,,167,1,2023-02-24_12h33.40.159,Online_SceneSrcMD_R,2020.2.10,MacIntel,60,,,,,,,,,,,,,,,,,,,,k,2.166,1,2,1,,,,,,,,,,d,5.752,0,1,0,0,0,0,1,,,,,,,
,,,,,,,,,,,,,,,,167,1,2023-02-24_12h33.40.159,Online_SceneSrcMD_R,2020.2.10,MacIntel,60,,,,,,,,,,,,,,,,,,,,,,,,,0,0,0,0,1,E1-9810_Rec.png,1,E1-9810Real.png,1,,,,,,,,,,,,,,,,
,,,,,,,,,,,,,,,,167,1,2023-02-24_12h33.40.159,Online_SceneSrcMD_R,2020.2.10,MacIntel,60,,,,,,,,,,,,,,,,,,,,l,1.406,1,3,1,,,,,,,,,,j,0.848,1,1,0,0,0,0,1,,,,,,,
,,,,,,,,,,,,,,,,167,1,2023-02-24_12h33.40.159,Online_SceneSrcMD_R,2020.2.10,MacIntel,60,,,,,,,,,,,,,,,,,,,,,,,,,0,1,1,1,1,N1-2593_Rec.png,1,N1-2593Real.png,1,,,,,,,,,,,,,,,,
,,,,,,,,,,,,,,,,167,1,2023-02-24_12h33.40.159,Online_SceneSrcMD_R,2020.2.10,MacIntel,60,,,,,,,,,,,,,,,,,,,,s,1.255,0,2,0,0,2,2,2,1,E1-9830_Rec.png,1,E1-9830_SrcRec.png,0,,,,,,,,,,,,,,,,
,,,,,,,,,,,,,,,,167,1,2023-02-24_12h33.40.159,Online_SceneSrcMD_R,2020.2.10,MacIntel,60,,,,,,,,,,,,,,,,,,,,s,0.789,0,2,0,0,3,3,3,1,N2-2200_Rec.png,0,N2-2200_SrcRec.png,0,,,,,,,,,,,,,,,,
,,,,,,,,,,,,,,,,167,1,2023-02-24_12h33.40.159,Online_SceneSrcMD_R,2020.2.10,MacIntel,60,,,,,,,,,,,,,,,,,,,,k,1.259,1,2,1,,,,,,,,,,j,0.818,1,1,0,0,0,0,1,,,,,,,
,,,,,,,,,,,,,,,,167,1,2023-02-24_12h33.40.159,Online_SceneSrcMD_R,2020.2.10,MacIntel,60,,,,,,,,,,,,,,,,,,,,,,,,,0,4,4,4,1,N1-8041_Rec.png,1,N1-8041Real.png,1,,,,,,,,,,,,,,,,
,,,,,,,,,,,,,,,,167,1,2023-02-24_12h33.40.159,Online_SceneSrcMD_R,2020.2.10,MacIntel,60,,,,,,,,,,,,,,,,,,,,k,1.657,1,2,1,,,,,,,,,,j,0.719,1,1,0,0,0,0,1,,,,,,,
,,,,,,,,,,,,,,,,167,1,2023-02-24_12h33.40.159,Online_SceneSrcMD_R,2020.2.10,MacIntel,60,,,,,,,,,,,,,,,,,,,,,,,,,0,5,5,5,1,E1-9180_Rec.png,1,E1-9180Real.png,1,,,,,,,,,,,,,,,,
,,,,,,,,,,,,,,,,167,1,2023-02-24_12h33.40.159,Online_SceneSrcMD_R,2020.2.10,MacIntel,60,,,,,,,,,,,,,,,,,,,,s,1.557,0,2,0,0,6,6,6,1,N2-2620_Rec.png,0,N2-2620_SrcRec.png,0,,,,,,,,,,,,,,,,
,,,,,,,,,,,,,,,,167,1,2023-02-24_12h33.40.159,Online_SceneSrcMD_R,2020.2.10,MacIntel,60,,,,,,,,,,,,,,,,,,,,s,1.9,0,2,0,0,7,7,7,1,E2-3266_Rec.png,0,E2-3266_SrcRec.png,0,,,,,,,,,,,,,,,,
,,,,,,,,,,,,,,,,167,1,2023-02-24_12h33.40.159,Online_SceneSrcMD_R,2020.2.10,MacIntel,60,,,,,,,,,,,,,,,,,,,,s,1.921,0,2,0,0,8,8,8,1,N2-2270_Rec.png,0,N2-2270Real.png,1,,,,,,,,,,,,,,,,
,,,,,,,,,,,,,,,,167,1,2023-02-24_12h33.40.159,Online_SceneSrcMD_R,2020.2.10,MacIntel,60,,,,,,,,,,,,,,,,,,,,k,1.142,1,2,1,,,,,,,,,,j,0.899,1,1,0,0,0,0,1,,,,,,,
,,,,,,,,,,,,,,,,167,1,2023-02-24_12h33.40.159,Online_SceneSrcMD_R,2020.2.10,MacIntel,60,,,,,,,,,,,,,,,,,,,,,,,,,0,9,9,9,1,N1-2240_Rec.png,1,N1-2240_SrcRec.png,0,,,,,,,,,,,,,,,,
,,,,,,,,,,,,,,,,167,1,2023-02-24_12h33.40.159,Online_SceneSrcMD_R,2020.2.10,MacIntel,60,,,,,,,,,,,,,,,,,,,,s,1.101,0,2,0,0,10,10,10,1,N2-5779_Rec.png,0,N2-5779Real.png,1,,,,,,,,,,,,,,,,
,,,,,,,,,,,,,,,,167,1,2023-02-24_12h33.40.159,Online_SceneSrcMD_R,2020.2.10,MacIntel,60,,,,,,,,,,,,,,,,,,,,k,1.137,1,2,1,,,,,,,,,,k,0.828,1,2,0,0,0,0,1,,,,,,,
,,,,,,,,,,,,,,,,167,1,2023-02-24_12h33.40.159,Online_SceneSrcMD_R,2020.2.10,MacIntel,60,,,,,,,,,,,,,,,,,,,,,,,,,0,11,11,11,1,E1-1274_Rec.png,1,E1-1274Real.png,1,,,,,,,,,,,,,,,,
,,,,,,,,,,,,,,,,167,1,2023-02-24_12h33.40.159,Online_SceneSrcMD_R,2020.2.10,MacIntel,60,,,,,,,,,,,,,,,,,,,,s,0.99,0,2,0,0,12,12,12,1,E2-9921_Rec.png,0,E2-9921_SrcRec.png,0,,,,,,,,,,,,,,,,
,,,,,,,,,,,,,,,,167,1,2023-02-24_12h33.40.159,Online_SceneSrcMD_R,2020.2.10,MacIntel,60,,,,,,,,,,,,,,,,,,,,k,1.076,1,2,1,,,,,,,,,,j,1.073,1,1,0,0,0,0,1,,,,,,,
,,,,,,,,,,,,,,,,167,1,2023-02-24_12h33.40.159,Online_SceneSrcMD_R,2020.2.10,MacIntel,60,,,,,,,,,,,,,,,,,,,,,,,,,0,13,13,13,1,E1-2717_Rec.png,1,E1-2717Real.png,1,,,,,,,,,,,,,,,,
,,,,,,,,,,,,,,,,167,1,2023-02-24_12h33.40.159,Online_SceneSrcMD_R,2020.2.10,MacIntel,60,,,,,,,,,,,,,,,,,,,,s,12.318,0,2,0,0,14,14,14,1,N1-5994_Rec.png,1,N1-5994_SrcRec.png,0,,,,,,,,,,,,,,,,
,,,,,,,,,,,,,,,,167,1,2023-02-24_12h33.40.159,Online_SceneSrcMD_R,2020.2.10,MacIntel,60,,,,,,,,,,,,,,,,,,,,s,1.306,0,2,0,0,15,15,15,1,N1-5410_Rec.png,1,N1-5410Real.png,1,,,,,,,,,,,,,,,,
,,,,,,,,,,,,,,,,167,1,2023-02-24_12h33.40.159,Online_SceneSrcMD_R,2020.2.10,MacIntel,60,,,,,,,,,,,,,,,,,,,,s,2.215,0,2,0,0,16,16,16,1,E2-2683_Rec.png,0,E2-2683_SrcRec.png,0,,,,,,,,,,,,,,,,
,,,,,,,,,,,,,,,,167,1,2023-02-24_12h33.40.159,Online_SceneSrcMD_R,2020.2.10,MacIntel,60,,,,,,,,,,,,,,,,,,,,s,0.928,0,2,0,0,17,17,17,1,N2-2579_Rec.png,0,N2-2579_SrcRec.png,0,,,,,,,,,,,,,,,,
,,,,,,,,,,,,,,,,167,1,2023-02-24_12h33.40.159,Online_SceneSrcMD_R,2020.2.10,MacIntel,60,,,,,,,,,,,,,,,,,,,,s,0.765,0,2,0,0,18,18,18,1,E2-6243_Rec.png,0,E2-6243Real.png,1,,,,,,,,,,,,,,,,
,,,,,,,,,,,,,,,,167,1,2023-02-24_12h33.40.159,Online_SceneSrcMD_R,2020.2.10,MacIntel,60,,,,,,,,,,,,,,,,,,,,s,0.854,0,2,0,0,19,19,19,1,E2-9424_Rec.png,0,E2-9424_SrcRec.png,0,,,,,,,,,,,,,,,,
,,,,,,,,,,,,,,,,167,1,2023-02-24_12h33.40.159,Online_SceneSrcMD_R,2020.2.10,MacIntel,60,,,,,,,,,,,,,,,,,,,,,,,,,,,,,,,,,,,,,,,,,,,0,5,5,5,1,BlockSix.csv,Src_BlockSix.csv