Instructions_Loop.thisRepN,Instructions_Loop.thisTrialN,Instructions_Loop.thisN,Instructions_Loop.thisIndex,Instructions_Loop.ran,Top,Top_Bottom,TBMT_int,Middle_Top,Middle,Middle_Bottom,Bottom_Top,Bottom_Middle,Bottom,Photo,Mid_Photo,participant,session,date,expName,psychopyVersion,OS,frameRate,Redo_Instructions_Resp.keys,Redo_Instructions_Resp.rt,Practice_Responding.keys,Practice_Responding.corr,Practice_Responding.rt,Repeat_Loop.thisRepN,Repeat_Loop.thisTrialN,Repeat_Loop.thisN,Repeat_Loop.thisIndex,Repeat_Loop.ran,Practice_Loop.thisRepN,Practice_Loop.thisTrialN,Practice_Loop.thisN,Practice_Loop.thisIndex,Practice_Loop.ran,Prac_Scene,Scale,Prac_Ans,PracticeText,Warning_Sign.thisRepN,Warning_Sign.thisTrialN,Warning_Sign.thisN,Warning_Sign.thisIndex,Warning_Sign.ran,Encoding_Resp.keys,Encoding_Resp.rt,Item_Mem_Response,Item_Conf_Response,Src_LoopRun,Blocks.thisRepN,Blocks.thisTrialN,Blocks.thisN,Blocks.thisIndex,Blocks.ran,Rec_Scene,RecAns,Src_Scene,SrcAns,Src_Resp.keys,Src_Resp.rt,Source_Mem_Response,Source_Conf_Response,Src_Blocks.thisRepN,Src_Blocks.thisTrialN,Src_Blocks.thisN,Src_Blocks.thisIndex,Src_Blocks.ran,Group_Order.thisRepN,Group_Order.thisTrialN,Group_Order.thisN,Group_Order.thisIndex,Group_Order.ran,blockFile,Src_blockFile
0,0,0,0,1,NaN,NaN,NaN,NaN,welcome,NaN,NaN,NaN,press SPACE to continue,Empty.png,Empty.png,227,1,2023-10-13_10h05.31.918,Online_SceneSrcMD_R,2020.2.10,MacIntel,60,,,,,,,,,,,,,,,,,,,,,,,,,,,,,,,,,,,,,,,,,,,,,,,,,,,,,,
0,1,1,1,1,in this experiment you will complete a memory test for the images and colored frames that were presented yesterday.,NaN,NaN,the memory test will include previously seen AND new images.,NaN,NaN,NaN,NaN,press SPACE to continue,Empty.png,Empty.png,227,1,2023-10-13_10h05.31.918,Online_SceneSrcMD_R,2020.2.10,MacIntel,60,,,,,,,,,,,,,,,,,,,,,,,,,,,,,,,,,,,,,,,,,,,,,,,,,,,,,,
0,2,2,2,1,images will be presented on the screen one at a time.,NaN,NaN,six blocks of images will be presented.,NaN,NaN,NaN,NaN,press SPACE to continue,Empty.png,Empty.png,227,1,2023-10-13_10h05.31.918,Online_SceneSrcMD_R,2020.2.10,MacIntel,60,,,,,,,,,,,,,,,,,,,,,,,,,,,,,,,,,,,,,,,,,,,,,,,,,,,,,,
0,3,3,3,1,some of the images will portray scenes with emotional content.,NaN,NaN,if you become uncomfortable please remember that you can leave the experiment at any point without penalty.,NaN,NaN,NaN,NaN,press SPACE to continue,Empty.png,Empty.png,227,1,2023-10-13_10h05.31.918,Online_SceneSrcMD_R,2020.2.10,MacIntel,60,,,,,,,,,,,,,,,,,,,,,,,,,,,,,,,,,,,,,,,,,,,,,,,,,,,,,,
0,4,4,4,1,"you will first report whether you remember previously seeing each image, and your confidence in your response.",when responding refer to the scale below:,NaN,NaN,NaN,use your keyboard to submit your response.,NaN,NaN,press SPACE to continue,Alternative_Scale.png,Empty.png,227,1,2023-10-13_10h05.31.918,Online_SceneSrcMD_R,2020.2.10,MacIntel,60,,,,,,,,,,,,,,,,,,,,,,,,,,,,,,,,,,,,,,,,,,,,,,,,,,,,,,
0,5,5,5,1,"if you DO NOT remember seeing the image previously, use your left hand to respond using either the 'A', 'S', or 'D' keys.",NaN,NaN,NaN,NaN,'A' is Very Confident No (3),'D' is Not Confident No (1),'S' is Somewhat Confident No (2),press SPACE to continue,Alternative_Scale.png,Empty.png,227,1,2023-10-13_10h05.31.918,Online_SceneSrcMD_R,2020.2.10,MacIntel,60,,,,,,,,,,,,,,,,,,,,,,,,,,,,,,,,,,,,,,,,,,,,,,,,,,,,,,
0,6,6,6,1,"if you DO remember seeing the image previously, use your right hand to respond using either the 'J', 'K', or 'L' keys.",NaN,NaN,NaN,NaN,'J' is Not Confident Yes (1),'L' is Very Confident Yes (3),'K' is Somewhat Confident Yes (2),press SPACE to continue,Alternative_Scale.png,Empty.png,227,1,2023-10-13_10h05.31.918,Online_SceneSrcMD_R,2020.2.10,MacIntel,60,,,,,,,,,,,,,,,,,,,,,,,,,,,,,,,,,,,,,,,,,,,,,,,,,,,,,,
0,7,7,7,1,NaN,keep both hands on the keyboard once you begin the memory test.,NaN,NaN,NaN,"we are interested in your first reaction, so respond at your own pace but please report your initial ""gut reaction"".",NaN,NaN,press SPACE to continue,Empty.png,Empty.png,227,1,2023-10-13_10h05.31.918,Online_SceneSrcMD_R,2020.2.10,MacIntel,60,,,,,,,,,,,,,,,,,,,,,,,,,,,,,,,,,,,,,,,,,,,,,,,,,,,,,,
0,8,8,8,1,NaN,NaN,please use the full range of the scale.,NaN,NaN,NaN,NaN,NaN,press SPACE to continue,Empty.png,Empty.png,227,1,2023-10-13_10h05.31.918,Online_SceneSrcMD_R,2020.2.10,MacIntel,60,,,,,,,,,,,,,,,,,,,,,,,,,,,,,,,,,,,,,,,,,,,,,,,,,,,,,,
0,9,9,9,1,example of what you will see when reporting your memory for the image:,NaN,NaN,NaN,NaN,If you very confidently remembered this image you would press 'L'.,"If you very confidently did not remember, you would press 'A'.",NaN,press SPACE to continue,Empty.png,TS03scene_Rec.png,227,1,2023-10-13_10h05.31.918,Online_SceneSrcMD_R,2020.2.10,MacIntel,60,,,,,,,,,,,,,,,,,,,,,,,,,,,,,,,,,,,,,,,,,,,,,,,,,,,,,,
0,10,10,10,1,"for remembered images, your memory and associated confidence will also be tested for the frame color which surrounded the image.",when responding refer to the scale below:,NaN,NaN,NaN,use your keyboard to submit your response.,NaN,NaN,press SPACE to continue,Alternative_Scale.png,Empty.png,227,1,2023-10-13_10h05.31.918,Online_SceneSrcMD_R,2020.2.10,MacIntel,60,,,,,,,,,,,,,,,,,,,,,,,,,,,,,,,,,,,,,,,,,,,,,,,,,,,,,,
0,11,11,11,1,"if the color of the frame around the image differs from what you remember, use your left hand to respond using either the 'A', 'S', or 'D' keys.",NaN,NaN,NaN,NaN,'A' is Very Confident No (3),'D' is Not Confident No (1),'S' is Somewhat Confident No (2),press SPACE to continue,Alternative_Scale.png,Empty.png,227,1,2023-10-13_10h05.31.918,Online_SceneSrcMD_R,2020.2.10,MacIntel,60,,,,,,,,,,,,,,,,,,,,,,,,,,,,,,,,,,,,,,,,,,,,,,,,,,,,,,
0,12,12,12,1,"if the color of the frame around the image matches what you remember, use your right hand to respond using either the 'J', 'K', or 'L' keys.",NaN,NaN,NaN,NaN,'J' is Not Confident Yes (1),'L' is Very Confident Yes (3),'K' is Somewhat Confident Yes (2),press SPACE to continue,Alternative_Scale.png,Empty.png,227,1,2023-10-13_10h05.31.918,Online_SceneSrcMD_R,2020.2.10,MacIntel,60,,,,,,,,,,,,,,,,,,,,,,,,,,,,,,,,,,,,,,,,,,,,,,,,,,,,,,
0,13,13,13,1,example of what you will see when reporting your memory for the frame color:,NaN,NaN,NaN,NaN,If you very confidently remembered a yellow frame around the image you would press 'L'.,"If you very confidently remembered another color around the frame, you would press 'A'.",NaN,press SPACE to continue,Empty.png,TS03scene_SrcRec.png,227,1,2023-10-13_10h05.31.918,Online_SceneSrcMD_R,2020.2.10,MacIntel,60,,,,,,,,,,,,,,,,,,,,,,,,,,,,,,,,,,,,,,,,,,,,,,,,,,,,,,
0,14,14,14,1,NaN,NaN,NaN,this is the end of the instructions,NaN,NaN,NaN,NaN,press SPACE to continue,Empty.png,Empty.png,227,1,2023-10-13_10h05.31.918,Online_SceneSrcMD_R,2020.2.10,MacIntel,60,,,,,,,,,,,,,,,,,,,,,,,,,,,,,,,,,,,,,,,,,,,,,,,,,,,,,,
,,,,,,,,,,,,,,,,227,1,2023-10-13_10h05.31.918,Online_SceneSrcMD_R,2020.2.10,MacIntel,60,p,4.9968,p,1,2.8468,0,0,0,0,1,,,,,,,,,,,,,,,,,,,,,,,,,,,,,,,,,,,,,,,,,,,,
,,,,,,,,,,,,,,,,227,1,2023-10-13_10h05.31.918,Online_SceneSrcMD_R,2020.2.10,MacIntel,60,,,,,,,,,,,0,0,0,0,1,Empty.png,Alternative_Scale.png,p,after memorizing the scale below press 'P' to proceed.,,,,,,,,,,,,,,,,,,,,,,,,,,,,,,,,,,,
,,,,,,,,,,,,,,,,227,1,2023-10-13_10h05.31.918,Online_SceneSrcMD_R,2020.2.10,MacIntel,60,,,l,1,1.622,0,0,0,0,1,,,,,,,,,,,,,,,,,,,,,,,,,,,,,,,,,,,,,,,,,,,,
,,,,,,,,,,,,,,,,227,1,2023-10-13_10h05.31.918,Online_SceneSrcMD_R,2020.2.10,MacIntel,60,,,,,,,,,,,0,1,1,1,1,TS01scene_Rec.png,Empty.png,l,what would you respond if you were very confident you remembered seeing this image?,,,,,,,,,,,,,,,,,,,,,,,,,,,,,,,,,,,
,,,,,,,,,,,,,,,,227,1,2023-10-13_10h05.31.918,Online_SceneSrcMD_R,2020.2.10,MacIntel,60,,,l,0,2.7184,,,,,,,,,,,,,,,0,0,0,0,1,,,,,,,,,,,,,,,,,,,,,,,,,,,,,,
,,,,,,,,,,,,,,,,227,1,2023-10-13_10h05.31.918,Online_SceneSrcMD_R,2020.2.10,MacIntel,60,,,,,,0,0,0,0,1,,,,,,,,,,,,,,,,,,,,,,,,,,,,,,,,,,,,,,,,,,,,
,,,,,,,,,,,,,,,,227,1,2023-10-13_10h05.31.918,Online_SceneSrcMD_R,2020.2.10,MacIntel,60,,,l,0,3.0512,,,,,,,,,,,,,,,0,0,0,0,1,,,,,,,,,,,,,,,,,,,,,,,,,,,,,,
,,,,,,,,,,,,,,,,227,1,2023-10-13_10h05.31.918,Online_SceneSrcMD_R,2020.2.10,MacIntel,60,,,,,,1,0,1,0,1,,,,,,,,,,,,,,,,,,,,,,,,,,,,,,,,,,,,,,,,,,,,
,,,,,,,,,,,,,,,,227,1,2023-10-13_10h05.31.918,Online_SceneSrcMD_R,2020.2.10,MacIntel,60,,,a,1,5.9992,2,0,2,0,1,,,,,,,,,,,,,,,,,,,,,,,,,,,,,,,,,,,,,,,,,,,,
,,,,,,,,,,,,,,,,227,1,2023-10-13_10h05.31.918,Online_SceneSrcMD_R,2020.2.10,MacIntel,60,,,,,,,,,,,0,2,2,2,1,TS01scene_SrcRec.png,Empty.png,a,respond as if you very confidently remembered another border color around this photo.,,,,,,,,,,,,,,,,,,,,,,,,,,,,,,,,,,,
,,,,,,,,,,,,,,,,227,1,2023-10-13_10h05.31.918,Online_SceneSrcMD_R,2020.2.10,MacIntel,60,,,l,0,13.8341,,,,,,,,,,,,,,,0,0,0,0,1,,,,,,,,,,,,,,,,,,,,,,,,,,,,,,
,,,,,,,,,,,,,,,,227,1,2023-10-13_10h05.31.918,Online_SceneSrcMD_R,2020.2.10,MacIntel,60,,,,,,0,0,0,0,1,,,,,,,,,,,,,,,,,,,,,,,,,,,,,,,,,,,,,,,,,,,,
,,,,,,,,,,,,,,,,227,1,2023-10-13_10h05.31.918,Online_SceneSrcMD_R,2020.2.10,MacIntel,60,,,a,1,2.3348,1,0,1,0,1,,,,,,,,,,,,,,,,,,,,,,,,,,,,,,,,,,,,,,,,,,,,
,,,,,,,,,,,,,,,,227,1,2023-10-13_10h05.31.918,Online_SceneSrcMD_R,2020.2.10,MacIntel,60,,,,,,,,,,,0,3,3,3,1,TS05scene_Rec.png,Empty.png,a,what would you respond if you were very confident you did not remember seeing this image?,,,,,,,,,,,,,,,,,,,,,,,,,,,,,,,,,,,
,,,,,,,,,,,,,,,,227,1,2023-10-13_10h05.31.918,Online_SceneSrcMD_R,2020.2.10,MacIntel,60,,,l,0,10.5776,,,,,,,,,,,,,,,0,0,0,0,1,,,,,,,,,,,,,,,,,,,,,,,,,,,,,,
,,,,,,,,,,,,,,,,227,1,2023-10-13_10h05.31.918,Online_SceneSrcMD_R,2020.2.10,MacIntel,60,,,,,,0,0,0,0,1,,,,,,,,,,,,,,,,,,,,,,,,,,,,,,,,,,,,,,,,,,,,
,,,,,,,,,,,,,,,,227,1,2023-10-13_10h05.31.918,Online_SceneSrcMD_R,2020.2.10,MacIntel,60,,,a,0,8.1003,,,,,,,,,,,,,,,0,0,0,0,1,,,,,,,,,,,,,,,,,,,,,,,,,,,,,,
,,,,,,,,,,,,,,,,227,1,2023-10-13_10h05.31.918,Online_SceneSrcMD_R,2020.2.10,MacIntel,60,,,,,,1,0,1,0,1,,,,,,,,,,,,,,,,,,,,,,,,,,,,,,,,,,,,,,,,,,,,
,,,,,,,,,,,,,,,,227,1,2023-10-13_10h05.31.918,Online_SceneSrcMD_R,2020.2.10,MacIntel,60,,,l,0,1.5489,,,,,,,,,,,,,,,0,0,0,0,1,,,,,,,,,,,,,,,,,,,,,,,,,,,,,,
,,,,,,,,,,,,,,,,227,1,2023-10-13_10h05.31.918,Online_SceneSrcMD_R,2020.2.10,MacIntel,60,,,,,,2,0,2,0,1,,,,,,,,,,,,,,,,,,,,,,,,,,,,,,,,,,,,,,,,,,,,
,,,,,,,,,,,,,,,,227,1,2023-10-13_10h05.31.918,Online_SceneSrcMD_R,2020.2.10,MacIntel,60,,,d,0,6.5179,,,,,,,,,,,,,,,0,0,0,0,1,,,,,,,,,,,,,,,,,,,,,,,,,,,,,,
,,,,,,,,,,,,,,,,227,1,2023-10-13_10h05.31.918,Online_SceneSrcMD_R,2020.2.10,MacIntel,60,,,,,,3,0,3,0,1,,,,,,,,,,,,,,,,,,,,,,,,,,,,,,,,,,,,,,,,,,,,
,,,,,,,,,,,,,,,,227,1,2023-10-13_10h05.31.918,Online_SceneSrcMD_R,2020.2.10,MacIntel,60,,,j,1,2.6818,4,0,4,0,1,,,,,,,,,,,,,,,,,,,,,,,,,,,,,,,,,,,,,,,,,,,,
,,,,,,,,,,,,,,,,227,1,2023-10-13_10h05.31.918,Online_SceneSrcMD_R,2020.2.10,MacIntel,60,,,,,,,,,,,0,4,4,4,1,TS04scene_Rec.png,Empty.png,j,what would you respond if you were not confident you remembered seeing this image?,,,,,,,,,,,,,,,,,,,,,,,,,,,,,,,,,,,
,,,,,,,,,,,,,,,,227,1,2023-10-13_10h05.31.918,Online_SceneSrcMD_R,2020.2.10,MacIntel,60,,,j,0,6.6506,,,,,,,,,,,,,,,0,0,0,0,1,,,,,,,,,,,,,,,,,,,,,,,,,,,,,,
,,,,,,,,,,,,,,,,227,1,2023-10-13_10h05.31.918,Online_SceneSrcMD_R,2020.2.10,MacIntel,60,,,,,,0,0,0,0,1,,,,,,,,,,,,,,,,,,,,,,,,,,,,,,,,,,,,,,,,,,,,
,,,,,,,,,,,,,,,,227,1,2023-10-13_10h05.31.918,Online_SceneSrcMD_R,2020.2.10,MacIntel,60,,,a,1,1.5339,1,0,1,0,1,,,,,,,,,,,,,,,,,,,,,,,,,,,,,,,,,,,,,,,,,,,,
,,,,,,,,,,,,,,,,227,1,2023-10-13_10h05.31.918,Online_SceneSrcMD_R,2020.2.10,MacIntel,60,,,,,,,,,,,0,5,5,5,1,TS04scene_SrcRec.png,Empty.png,a,respond as if you very confidently remembered another border color around this photo.,,,,,,,,,,,,,,,,,,,,,,,,,,,,,,,,,,,
,,,,,,,,,,,,,,,,227,1,2023-10-13_10h05.31.918,Online_SceneSrcMD_R,2020.2.10,MacIntel,60,,,a,0,7.964,,,,,,,,,,,,,,,0,0,0,0,1,,,,,,,,,,,,,,,,,,,,,,,,,,,,,,
,,,,,,,,,,,,,,,,227,1,2023-10-13_10h05.31.918,Online_SceneSrcMD_R,2020.2.10,MacIntel,60,,,,,,0,0,0,0,1,,,,,,,,,,,,,,,,,,,,,,,,,,,,,,,,,,,,,,,,,,,,
,,,,,,,,,,,,,,,,227,1,2023-10-13_10h05.31.918,Online_SceneSrcMD_R,2020.2.10,MacIntel,60,,,l,0,8.1831,,,,,,,,,,,,,,,0,0,0,0,1,,,,,,,,,,,,,,,,,,,,,,,,,,,,,,
,,,,,,,,,,,,,,,,227,1,2023-10-13_10h05.31.918,Online_SceneSrcMD_R,2020.2.10,MacIntel,60,,,,,,1,0,1,0,1,,,,,,,,,,,,,,,,,,,,,,,,,,,,,,,,,,,,,,,,,,,,
,,,,,,,,,,,,,,,,227,1,2023-10-13_10h05.31.918,Online_SceneSrcMD_R,2020.2.10,MacIntel,60,,,s,1,0.7309,2,0,2,0,1,,,,,,,,,,,,,,,,,,,,,,,,,,,,,,,,,,,,,,,,,,,,
,,,,,,,,,,,,,,,,227,1,2023-10-13_10h05.31.918,Online_SceneSrcMD_R,2020.2.10,MacIntel,60,,,,,,,,,,,0,6,6,6,1,TS08scene_Rec.png,Empty.png,s,what would you respond if you were somewhat confident you did not remember seeing this image?,,,,,,,,,,,,,,,,,,,,,,,,,,,,,,,,,,,
,,,,,,,,,,,,,,,,227,1,2023-10-13_10h05.31.918,Online_SceneSrcMD_R,2020.2.10,MacIntel,60,,,l,0,9.3835,,,,,,,,,,,,,,,0,0,0,0,1,,,,,,,,,,,,,,,,,,,,,,,,,,,,,,
,,,,,,,,,,,,,,,,227,1,2023-10-13_10h05.31.918,Online_SceneSrcMD_R,2020.2.10,MacIntel,60,,,,,,0,0,0,0,1,,,,,,,,,,,,,,,,,,,,,,,,,,,,,,,,,,,,,,,,,,,,
,,,,,,,,,,,,,,,,227,1,2023-10-13_10h05.31.918,Online_SceneSrcMD_R,2020.2.10,MacIntel,60,,,s,0,0.4355,,,,,,,,,,,,,,,0,0,0,0,1,,,,,,,,,,,,,,,,,,,,,,,,,,,,,,
,,,,,,,,,,,,,,,,227,1,2023-10-13_10h05.31.918,Online_SceneSrcMD_R,2020.2.10,MacIntel,60,,,,,,1,0,1,0,1,,,,,,,,,,,,,,,,,,,,,,,,,,,,,,,,,,,,,,,,,,,,
,,,,,,,,,,,,,,,,227,1,2023-10-13_10h05.31.918,Online_SceneSrcMD_R,2020.2.10,MacIntel,60,,,k,1,0.4669,2,0,2,0,1,,,,,,,,,,,,,,,,,,,,,,,,,,,,,,,,,,,,,,,,,,,,
,,,,,,,,,,,,,,,,227,1,2023-10-13_10h05.31.918,Online_SceneSrcMD_R,2020.2.10,MacIntel,60,,,,,,,,,,,0,7,7,7,1,TS02scene_Rec.png,Empty.png,k,what would you respond if you were somewhat confident you remembered seeing this image?,,,,,,,,,,,,,,,,,,,,,,,,,,,,,,,,,,,
,,,,,,,,,,,,,,,,227,1,2023-10-13_10h05.31.918,Online_SceneSrcMD_R,2020.2.10,MacIntel,60,,,a,0,4.1674,,,,,,,,,,,,,,,0,0,0,0,1,,,,,,,,,,,,,,,,,,,,,,,,,,,,,,
,,,,,,,,,,,,,,,,227,1,2023-10-13_10h05.31.918,Online_SceneSrcMD_R,2020.2.10,MacIntel,60,,,,,,0,0,0,0,1,,,,,,,,,,,,,,,,,,,,,,,,,,,,,,,,,,,,,,,,,,,,
,,,,,,,,,,,,,,,,227,1,2023-10-13_10h05.31.918,Online_SceneSrcMD_R,2020.2.10,MacIntel,60,,,l,0,1.1638,,,,,,,,,,,,,,,0,0,0,0,1,,,,,,,,,,,,,,,,,,,,,,,,,,,,,,
,,,,,,,,,,,,,,,,227,1,2023-10-13_10h05.31.918,Online_SceneSrcMD_R,2020.2.10,MacIntel,60,,,,,,1,0,1,0,1,,,,,,,,,,,,,,,,,,,,,,,,,,,,,,,,,,,,,,,,,,,,
,,,,,,,,,,,,,,,,227,1,2023-10-13_10h05.31.918,Online_SceneSrcMD_R,2020.2.10,MacIntel,60,,,s,1,0.6044,2,0,2,0,1,,,,,,,,,,,,,,,,,,,,,,,,,,,,,,,,,,,,,,,,,,,,
,,,,,,,,,,,,,,,,227,1,2023-10-13_10h05.31.918,Online_SceneSrcMD_R,2020.2.10,MacIntel,60,,,,,,,,,,,0,8,8,8,1,TS02scene_SrcRec.png,Empty.png,s,respond as if you somewhat confidently remembered another border color around this photo.,,,,,,,,,,,,,,,,,,,,,,,,,,,,,,,,,,,
,,,,,,,,,,,,,,,,227,1,2023-10-13_10h05.31.918,Online_SceneSrcMD_R,2020.2.10,MacIntel,60,,,s,0,1.2965,,,,,,,,,,,,,,,0,0,0,0,1,,,,,,,,,,,,,,,,,,,,,,,,,,,,,,
,,,,,,,,,,,,,,,,227,1,2023-10-13_10h05.31.918,Online_SceneSrcMD_R,2020.2.10,MacIntel,60,,,,,,0,0,0,0,1,,,,,,,,,,,,,,,,,,,,,,,,,,,,,,,,,,,,,,,,,,,,
,,,,,,,,,,,,,,,,227,1,2023-10-13_10h05.31.918,Online_SceneSrcMD_R,2020.2.10,MacIntel,60,,,k,0,0.5348,,,,,,,,,,,,,,,0,0,0,0,1,,,,,,,,,,,,,,,,,,,,,,,,,,,,,,
,,,,,,,,,,,,,,,,227,1,2023-10-13_10h05.31.918,Online_SceneSrcMD_R,2020.2.10,MacIntel,60,,,,,,1,0,1,0,1,,,,,,,,,,,,,,,,,,,,,,,,,,,,,,,,,,,,,,,,,,,,
,,,,,,,,,,,,,,,,227,1,2023-10-13_10h05.31.918,Online_SceneSrcMD_R,2020.2.10,MacIntel,60,,,l,0,0.4344,,,,,,,,,,,,,,,0,0,0,0,1,,,,,,,,,,,,,,,,,,,,,,,,,,,,,,
,,,,,,,,,,,,,,,,227,1,2023-10-13_10h05.31.918,Online_SceneSrcMD_R,2020.2.10,MacIntel,60,,,,,,2,0,2,0,1,,,,,,,,,,,,,,,,,,,,,,,,,,,,,,,,,,,,,,,,,,,,
,,,,,,,,,,,,,,,,227,1,2023-10-13_10h05.31.918,Online_SceneSrcMD_R,2020.2.10,MacIntel,60,,,s,0,0.3211,,,,,,,,,,,,,,,0,0,0,0,1,,,,,,,,,,,,,,,,,,,,,,,,,,,,,,
,,,,,,,,,,,,,,,,227,1,2023-10-13_10h05.31.918,Online_SceneSrcMD_R,2020.2.10,MacIntel,60,,,,,,3,0,3,0,1,,,,,,,,,,,,,,,,,,,,,,,,,,,,,,,,,,,,,,,,,,,,
,,,,,,,,,,,,,,,,227,1,2023-10-13_10h05.31.918,Online_SceneSrcMD_R,2020.2.10,MacIntel,60,,,j,0,2.1182,,,,,,,,,,,,,,,0,0,0,0,1,,,,,,,,,,,,,,,,,,,,,,,,,,,,,,
,,,,,,,,,,,,,,,,227,1,2023-10-13_10h05.31.918,Online_SceneSrcMD_R,2020.2.10,MacIntel,60,,,,,,4,0,4,0,1,,,,,,,,,,,,,,,,,,,,,,,,,,,,,,,,,,,,,,,,,,,,
,,,,,,,,,,,,,,,,227,1,2023-10-13_10h05.31.918,Online_SceneSrcMD_R,2020.2.10,MacIntel,60,,,d,1,0.3328,5,0,5,0,1,,,,,,,,,,,,,,,,,,,,,,,,,,,,,,,,,,,,,,,,,,,,
,,,,,,,,,,,,,,,,227,1,2023-10-13_10h05.31.918,Online_SceneSrcMD_R,2020.2.10,MacIntel,60,,,,,,,,,,,0,9,9,9,1,TS07scene_Rec.png,Empty.png,d,what would you respond if you were not confident you did not remember seeing this image?,,,,,,,,,,,,,,,,,,,,,,,,,,,,,,,,,,,
,,,,,,,,,,,,,,,,227,1,2023-10-13_10h05.31.918,Online_SceneSrcMD_R,2020.2.10,MacIntel,60,,,l,0,4.6195,,,,,,,,,,,,,,,0,0,0,0,1,,,,,,,,,,,,,,,,,,,,,,,,,,,,,,
,,,,,,,,,,,,,,,,227,1,2023-10-13_10h05.31.918,Online_SceneSrcMD_R,2020.2.10,MacIntel,60,,,,,,0,0,0,0,1,,,,,,,,,,,,,,,,,,,,,,,,,,,,,,,,,,,,,,,,,,,,
,,,,,,,,,,,,,,,,227,1,2023-10-13_10h05.31.918,Online_SceneSrcMD_R,2020.2.10,MacIntel,60,,,a,0,0.321,,,,,,,,,,,,,,,0,0,0,0,1,,,,,,,,,,,,,,,,,,,,,,,,,,,,,,
,,,,,,,,,,,,,,,,227,1,2023-10-13_10h05.31.918,Online_SceneSrcMD_R,2020.2.10,MacIntel,60,,,,,,1,0,1,0,1,,,,,,,,,,,,,,,,,,,,,,,,,,,,,,,,,,,,,,,,,,,,
,,,,,,,,,,,,,,,,227,1,2023-10-13_10h05.31.918,Online_SceneSrcMD_R,2020.2.10,MacIntel,60,,,k,1,0.3668,2,0,2,0,1,,,,,,,,,,,,,,,,,,,,,,,,,,,,,,,,,,,,,,,,,,,,
,,,,,,,,,,,,,,,,227,1,2023-10-13_10h05.31.918,Online_SceneSrcMD_R,2020.2.10,MacIntel,60,,,,,,,,,,,0,10,10,10,1,TS03scene_SrcRec.png,Empty.png,k,respond as if you somewhat confidently remembered a yellow border around this photo.,,,,,,,,,,,,,,,,,,,,,,,,,,,,,,,,,,,
,,,,,,,,,,,,,,,,227,1,2023-10-13_10h05.31.918,Online_SceneSrcMD_R,2020.2.10,MacIntel,60,,,,,,,,,,,,,,,,,,,,,,,,,a,1.9082,0,3,0,0,0,0,0,1,N2-8280_Rec.png,0,N2-8280Real.png,1,,,,,,,,,,,,,,,,
,,,,,,,,,,,,,,,,227,1,2023-10-13_10h05.31.918,Online_SceneSrcMD_R,2020.2.10,MacIntel,60,,,,,,,,,,,,,,,,,,,,,,,,,a,2.1401,0,3,0,0,1,1,1,1,N2-2499_Rec.png,0,N2-2499_SrcRec.png,0,,,,,,,,,,,,,,,,
,,,,,,,,,,,,,,,,227,1,2023-10-13_10h05.31.918,Online_SceneSrcMD_R,2020.2.10,MacIntel,60,,,,,,,,,,,,,,,,,,,,,,,,,a,2.0669,0,3,0,0,2,2,2,1,E2-3069_Rec.png,0,E2-3069Real.png,1,,,,,,,,,,,,,,,,
,,,,,,,,,,,,,,,,227,1,2023-10-13_10h05.31.918,Online_SceneSrcMD_R,2020.2.10,MacIntel,60,,,,,,,,,,,,,,,,,,,,,,,,,l,1.3083,1,3,1,,,,,,,,,,l,1.5557,1,3,0,0,0,0,1,,,,,,,
,,,,,,,,,,,,,,,,227,1,2023-10-13_10h05.31.918,Online_SceneSrcMD_R,2020.2.10,MacIntel,60,,,,,,,,,,,,,,,,,,,,,,,,,,,,,,0,3,3,3,1,E1-6244_Rec.png,1,E1-6244_SrcRec.png,0,,,,,,,,,,,,,,,,
,,,,,,,,,,,,,,,,227,1,2023-10-13_10h05.31.918,Online_SceneSrcMD_R,2020.2.10,MacIntel,60,,,,,,,,,,,,,,,,,,,,,,,,,a,2.1026,0,3,0,0,4,4,4,1,N1-7495_Rec.png,1,N1-7495Real.png,1,,,,,,,,,,,,,,,,
,,,,,,,,,,,,,,,,227,1,2023-10-13_10h05.31.918,Online_SceneSrcMD_R,2020.2.10,MacIntel,60,,,,,,,,,,,,,,,,,,,,,,,,,a,1.904,0,3,0,0,5,5,5,1,E1-6212_Rec.png,1,E1-6212Real.png,1,,,,,,,,,,,,,,,,
,,,,,,,,,,,,,,,,227,1,2023-10-13_10h05.31.918,Online_SceneSrcMD_R,2020.2.10,MacIntel,60,,,,,,,,,,,,,,,,,,,,,,,,,l,1.1848,1,3,1,,,,,,,,,,k,1.6575,1,2,0,0,0,0,1,,,,,,,
,,,,,,,,,,,,,,,,227,1,2023-10-13_10h05.31.918,Online_SceneSrcMD_R,2020.2.10,MacIntel,60,,,,,,,,,,,,,,,,,,,,,,,,,,,,,,0,6,6,6,1,N1-8460_Rec.png,1,N1-8460_SrcRec.png,0,,,,,,,,,,,,,,,,
,,,,,,,,,,,,,,,,227,1,2023-10-13_10h05.31.918,Online_SceneSrcMD_R,2020.2.10,MacIntel,60,,,,,,,,,,,,,,,,,,,,,,,,,s,2.2598,0,2,0,0,7,7,7,1,E2-7380_Rec.png,0,E2-7380_SrcRec.png,0,,,,,,,,,,,,,,,,
,,,,,,,,,,,,,,,,227,1,2023-10-13_10h05.31.918,Online_SceneSrcMD_R,2020.2.10,MacIntel,60,,,,,,,,,,,,,,,,,,,,,,,,,s,1.6844,0,2,0,0,8,8,8,1,N1-9210_Rec.png,1,N1-9210Real.png,1,,,,,,,,,,,,,,,,
,,,,,,,,,,,,,,,,227,1,2023-10-13_10h05.31.918,Online_SceneSrcMD_R,2020.2.10,MacIntel,60,,,,,,,,,,,,,,,,,,,,,,,,,a,1.2487,0,3,0,0,9,9,9,1,N1-1121_Rec.png,1,N1-1121_SrcRec.png,0,,,,,,,,,,,,,,,,
,,,,,,,,,,,,,,,,227,1,2023-10-13_10h05.31.918,Online_SceneSrcMD_R,2020.2.10,MacIntel,60,,,,,,,,,,,,,,,,,,,,,,,,,s,1.5829,0,2,0,0,10,10,10,1,E2-9920_Rec.png,0,E2-9920Real.png,1,,,,,,,,,,,,,,,,
,,,,,,,,,,,,,,,,227,1,2023-10-13_10h05.31.918,Online_SceneSrcMD_R,2020.2.10,MacIntel,60,,,,,,,,,,,,,,,,,,,,,,,,,l,1.1095,1,3,1,,,,,,,,,,k,1.7919,1,2,0,0,0,0,1,,,,,,,
,,,,,,,,,,,,,,,,227,1,2023-10-13_10h05.31.918,Online_SceneSrcMD_R,2020.2.10,MacIntel,60,,,,,,,,,,,,,,,,,,,,,,,,,,,,,,0,11,11,11,1,E1-6571_Rec.png,1,E1-6571_SrcRec.png,0,,,,,,,,,,,,,,,,
,,,,,,,,,,,,,,,,227,1,2023-10-13_10h05.31.918,Online_SceneSrcMD_R,2020.2.10,MacIntel,60,,,,,,,,,,,,,,,,,,,,,,,,,s,1.8452,0,2,0,0,12,12,12,1,E2-6540_Rec.png,0,E2-6540Real.png,1,,,,,,,,,,,,,,,,
,,,,,,,,,,,,,,,,227,1,2023-10-13_10h05.31.918,Online_SceneSrcMD_R,2020.2.10,MacIntel,60,,,,,,,,,,,,,,,,,,,,,,,,,a,0.771,0,3,0,0,13,13,13,1,N2-5875_Rec.png,0,N2-5875Real.png,1,,,,,,,,,,,,,,,,
,,,,,,,,,,,,,,,,227,1,2023-10-13_10h05.31.918,Online_SceneSrcMD_R,2020.2.10,MacIntel,60,,,,,,,,,,,,,,,,,,,,,,,,,a,2.0253,0,3,0,0,14,14,14,1,E2-9500_Rec.png,0,E2-9500_SrcRec.png,0,,,,,,,,,,,,,,,,
,,,,,,,,,,,,,,,,227,1,2023-10-13_10h05.31.918,Online_SceneSrcMD_R,2020.2.10,MacIntel,60,,,,,,,,,,,,,,,,,,,,,,,,,s,0.9985,0,2,0,0,15,15,15,1,N2-1910_Rec.png,0,N2-1910_SrcRec.png,0,,,,,,,,,,,,,,,,
,,,,,,,,,,,,,,,,227,1,2023-10-13_10h05.31.918,Online_SceneSrcMD_R,2020.2.10,MacIntel,60,,,,,,,,,,,,,,,,,,,,,,,,,a,3.0161,0,3,0,0,16,16,16,1,N1-1670_Rec.png,1,N1-1670Real.png,1,,,,,,,,,,,,,,,,
,,,,,,,,,,,,,,,,227,1,2023-10-13_10h05.31.918,Online_SceneSrcMD_R,2020.2.10,MacIntel,60,,,,,,,,,,,,,,,,,,,,,,,,,s,1.005,0,2,0,0,17,17,17,1,E1-3220_Rec.png,1,E1-3220Real.png,1,,,,,,,,,,,,,,,,
,,,,,,,,,,,,,,,,227,1,2023-10-13_10h05.31.918,Online_SceneSrcMD_R,2020.2.10,MacIntel,60,,,,,,,,,,,,,,,,,,,,,,,,,s,2.0887,0,2,0,0,18,18,18,1,E1-9561_Rec.png,1,E1-9561_SrcRec.png,0,,,,,,,,,,,,,,,,
,,,,,,,,,,,,,,,,227,1,2023-10-13_10h05.31.918,Online_SceneSrcMD_R,2020.2.10,MacIntel,60,,,,,,,,,,,,,,,,,,,,,,,,,s,0.8662,0,2,0,0,19,19,19,1,N2-9913_Rec.png,0,N2-9913_SrcRec.png,0,,,,,,,,,,,,,,,,
,,,,,,,,,,,,,,,,227,1,2023-10-13_10h05.31.918,Online_SceneSrcMD_R,2020.2.10,MacIntel,60,,,,,,,,,,,,,,,,,,,,,,,,,,,,,,,,,,,,,,,,,,,,,,,,0,0,0,0,1,BlockOne.csv,Src_BlockOne.csv
,,,,,,,,,,,,,,,,227,1,2023-10-13_10h05.31.918,Online_SceneSrcMD_R,2020.2.10,MacIntel,60,,,,,,,,,,,,,,,,,,,,,,,,,s,0.8204,0,2,0,0,0,0,0,1,N2-7600_Rec.png,0,N2-7600Real.png,1,,,,,,,,,,,,,,,,
,,,,,,,,,,,,,,,,227,1,2023-10-13_10h05.31.918,Online_SceneSrcMD_R,2020.2.10,MacIntel,60,,,,,,,,,,,,,,,,,,,,,,,,,s,1.4511,0,2,0,0,1,1,1,1,N1-2383_Rec.png,1,N1-2383_SrcRec.png,0,,,,,,,,,,,,,,,,
,,,,,,,,,,,,,,,,227,1,2023-10-13_10h05.31.918,Online_SceneSrcMD_R,2020.2.10,MacIntel,60,,,,,,,,,,,,,,,,,,,,,,,,,s,1.4972,0,2,0,0,2,2,2,1,E2-1932_Rec.png,0,E2-1932Real.png,1,,,,,,,,,,,,,,,,
,,,,,,,,,,,,,,,,227,1,2023-10-13_10h05.31.918,Online_SceneSrcMD_R,2020.2.10,MacIntel,60,,,,,,,,,,,,,,,,,,,,,,,,,s,1.1975,0,2,0,0,3,3,3,1,N1-5731_Rec.png,1,N1-5731Real.png,1,,,,,,,,,,,,,,,,
,,,,,,,,,,,,,,,,227,1,2023-10-13_10h05.31.918,Online_SceneSrcMD_R,2020.2.10,MacIntel,60,,,,,,,,,,,,,,,,,,,,,,,,,a,0.9395,0,3,0,0,4,4,4,1,E2-3261_Rec.png,0,E2-3261_SrcRec.png,0,,,,,,,,,,,,,,,,
,,,,,,,,,,,,,,,,227,1,2023-10-13_10h05.31.918,Online_SceneSrcMD_R,2020.2.10,MacIntel,60,,,,,,,,,,,,,,,,,,,,,,,,,l,1.3991,1,3,1,,,,,,,,,,k,1.6912,1,2,0,0,0,0,1,,,,,,,
,,,,,,,,,,,,,,,,227,1,2023-10-13_10h05.31.918,Online_SceneSrcMD_R,2020.2.10,MacIntel,60,,,,,,,,,,,,,,,,,,,,,,,,,,,,,,0,5,5,5,1,E1-3015_Rec.png,1,E1-3015Real.png,1,,,,,,,,,,,,,,,,
,,,,,,,,,,,,,,,,227,1,2023-10-13_10h05.31.918,Online_SceneSrcMD_R,2020.2.10,MacIntel,60,,,,,,,,,,,,,,,,,,,,,,,,,a,2.2277,0,3,0,0,6,6,6,1,E1-9252_Rec.png,1,E1-9252_SrcRec.png,0,,,,,,,,,,,,,,,,
,,,,,,,,,,,,,,,,227,1,2023-10-13_10h05.31.918,Online_SceneSrcMD_R,2020.2.10,MacIntel,60,,,,,,,,,,,,,,,,,,,,,,,,,s,1.5076,0,2,0,0,7,7,7,1,N2-4603_Rec.png,0,N2-4603_SrcRec.png,0,,,,,,,,,,,,,,,,
,,,,,,,,,,,,,,,,227,1,2023-10-13_10h05.31.918,Online_SceneSrcMD_R,2020.2.10,MacIntel,60,,,,,,,,,,,,,,,,,,,,,,,,,a,0.9193,0,3,0,0,8,8,8,1,E1-9911_Rec.png,1,E1-9911Real.png,1,,,,,,,,,,,,,,,,
,,,,,,,,,,,,,,,,227,1,2023-10-13_10h05.31.918,Online_SceneSrcMD_R,2020.2.10,MacIntel,60,,,,,,,,,,,,,,,,,,,,,,,,,s,1.1392,0,2,0,0,9,9,9,1,E2-9265_Rec.png,0,E2-9265_SrcRec.png,0,,,,,,,,,,,,,,,,
,,,,,,,,,,,,,,,,227,1,2023-10-13_10h05.31.918,Online_SceneSrcMD_R,2020.2.10,MacIntel,60,,,,,,,,,,,,,,,,,,,,,,,,,l,1.5408,1,3,1,,,,,,,,,,k,1.2919,1,2,0,0,0,0,1,,,,,,,
,,,,,,,,,,,,,,,,227,1,2023-10-13_10h05.31.918,Online_SceneSrcMD_R,2020.2.10,MacIntel,60,,,,,,,,,,,,,,,,,,,,,,,,,,,,,,0,10,10,10,1,N1-2575_Rec.png,1,N1-2575Real.png,1,,,,,,,,,,,,,,,,
,,,,,,,,,,,,,,,,227,1,2023-10-13_10h05.31.918,Online_SceneSrcMD_R,2020.2.10,MacIntel,60,,,,,,,,,,,,,,,,,,,,,,,,,a,1.5713,0,3,0,0,11,11,11,1,N2-1600_Rec.png,0,N2-1600_SrcRec.png,0,,,,,,,,,,,,,,,,
,,,,,,,,,,,,,,,,227,1,2023-10-13_10h05.31.918,Online_SceneSrcMD_R,2020.2.10,MacIntel,60,,,,,,,,,,,,,,,,,,,,,,,,,a,1.283,0,3,0,0,12,12,12,1,E2-6415_Rec.png,0,E2-6415Real.png,1,,,,,,,,,,,,,,,,
,,,,,,,,,,,,,,,,227,1,2023-10-13_10h05.31.918,Online_SceneSrcMD_R,2020.2.10,MacIntel,60,,,,,,,,,,,,,,,,,,,,,,,,,a,0.7326,0,3,0,0,13,13,13,1,N2-8465_Rec.png,0,N2-8465Real.png,1,,,,,,,,,,,,,,,,
,,,,,,,,,,,,,,,,227,1,2023-10-13_10h05.31.918,Online_SceneSrcMD_R,2020.2.10,MacIntel,60,,,,,,,,,,,,,,,,,,,,,,,,,l,1.1841,1,3,1,,,,,,,,,,l,1.2949,1,3,0,0,0,0,1,,,,,,,
,,,,,,,,,,,,,,,,227,1,2023-10-13_10h05.31.918,Online_SceneSrcMD_R,2020.2.10,MacIntel,60,,,,,,,,,,,,,,,,,,,,,,,,,,,,,,0,14,14,14,1,N1-2500_Rec.png,1,N1-2500_SrcRec.png,0,,,,,,,,,,,,,,,,
,,,,,,,,,,,,,,,,227,1,2023-10-13_10h05.31.918,Online_SceneSrcMD_R,2020.2.10,MacIntel,60,,,,,,,,,,,,,,,,,,,,,,,,,l,1.8875,1,3,1,,,,,,,,,,k,1.1351,1,2,0,0,0,0,1,,,,,,,
,,,,,,,,,,,,,,,,227,1,2023-10-13_10h05.31.918,Online_SceneSrcMD_R,2020.2.10,MacIntel,60,,,,,,,,,,,,,,,,,,,,,,,,,,,,,,0,15,15,15,1,E1-3280_Rec.png,1,E1-3280_SrcRec.png,0,,,,,,,,,,,,,,,,
,,,,,,,,,,,,,,,,227,1,2023-10-13_10h05.31.918,Online_SceneSrcMD_R,2020.2.10,MacIntel,60,,,,,,,,,,,,,,,,,,,,,,,,,l,1.4427,1,3,1,,,,,,,,,,k,0.5349,1,2,0,0,0,0,1,,,,,,,
,,,,,,,,,,,,,,,,227,1,2023-10-13_10h05.31.918,Online_SceneSrcMD_R,2020.2.10,MacIntel,60,,,,,,,,,,,,,,,,,,,,,,,,,,,,,,0,16,16,16,1,N1-1812_Rec.png,1,N1-1812Real.png,1,,,,,,,,,,,,,,,,
,,,,,,,,,,,,,,,,227,1,2023-10-13_10h05.31.918,Online_SceneSrcMD_R,2020.2.10,MacIntel,60,,,,,,,,,,,,,,,,,,,,,,,,,a,0.7896,0,3,0,0,17,17,17,1,E2-3350_Rec.png,0,E2-3350Real.png,1,,,,,,,,,,,,,,,,
,,,,,,,,,,,,,,,,227,1,2023-10-13_10h05.31.918,Online_SceneSrcMD_R,2020.2.10,MacIntel,60,,,,,,,,,,,,,,,,,,,,,,,,,a,0.9591,0,3,0,0,18,18,18,1,N2-2840_Rec.png,0,N2-2840_SrcRec.png,0,,,,,,,,,,,,,,,,
,,,,,,,,,,,,,,,,227,1,2023-10-13_10h05.31.918,Online_SceneSrcMD_R,2020.2.10,MacIntel,60,,,,,,,,,,,,,,,,,,,,,,,,,a,1.459,0,3,0,0,19,19,19,1,E1-9254_Rec.png,1,E1-9254_SrcRec.png,0,,,,,,,,,,,,,,,,
,,,,,,,,,,,,,,,,227,1,2023-10-13_10h05.31.918,Online_SceneSrcMD_R,2020.2.10,MacIntel,60,,,,,,,,,,,,,,,,,,,,,,,,,,,,,,,,,,,,,,,,,,,,,,,,0,1,1,1,1,BlockTwo.csv,Src_BlockTwo.csv
,,,,,,,,,,,,,,,,227,1,2023-10-13_10h05.31.918,Online_SceneSrcMD_R,2020.2.10,MacIntel,60,,,,,,,,,,,,,,,,,,,,,,,,,k,1.5629,1,2,1,,,,,,,,,,k,1.0698,1,2,0,0,0,0,1,,,,,,,
,,,,,,,,,,,,,,,,227,1,2023-10-13_10h05.31.918,Online_SceneSrcMD_R,2020.2.10,MacIntel,60,,,,,,,,,,,,,,,,,,,,,,,,,,,,,,0,0,0,0,1,E1-1310_Rec.png,1,E1-1310Real.png,1,,,,,,,,,,,,,,,,
,,,,,,,,,,,,,,,,227,1,2023-10-13_10h05.31.918,Online_SceneSrcMD_R,2020.2.10,MacIntel,60,,,,,,,,,,,,,,,,,,,,,,,,,a,0.8255,0,3,0,0,1,1,1,1,E1-2800_Rec.png,1,E1-2800_SrcRec.png,0,,,,,,,,,,,,,,,,
,,,,,,,,,,,,,,,,227,1,2023-10-13_10h05.31.918,Online_SceneSrcMD_R,2020.2.10,MacIntel,60,,,,,,,,,,,,,,,,,,,,,,,,,a,2.2525,0,3,0,0,2,2,2,1,E1-2352_2_Rec.png,1,E1-2352_2Real.png,1,,,,,,,,,,,,,,,,
,,,,,,,,,,,,,,,,227,1,2023-10-13_10h05.31.918,Online_SceneSrcMD_R,2020.2.10,MacIntel,60,,,,,,,,,,,,,,,,,,,,,,,,,a,1.266,0,3,0,0,3,3,3,1,N2-8160_Rec.png,0,N2-8160Real.png,1,,,,,,,,,,,,,,,,
,,,,,,,,,,,,,,,,227,1,2023-10-13_10h05.31.918,Online_SceneSrcMD_R,2020.2.10,MacIntel,60,,,,,,,,,,,,,,,,,,,,,,,,,a,0.9873,0,3,0,0,4,4,4,1,N1-2190_Rec.png,1,N1-2190_SrcRec.png,0,,,,,,,,,,,,,,,,
,,,,,,,,,,,,,,,,227,1,2023-10-13_10h05.31.918,Online_SceneSrcMD_R,2020.2.10,MacIntel,60,,,,,,,,,,,,,,,,,,,,,,,,,a,1.9902,0,3,0,0,5,5,5,1,E1-3550_Rec.png,1,E1-3550_SrcRec.png,0,,,,,,,,,,,,,,,,
,,,,,,,,,,,,,,,,227,1,2023-10-13_10h05.31.918,Online_SceneSrcMD_R,2020.2.10,MacIntel,60,,,,,,,,,,,,,,,,,,,,,,,,,a,0.7418,0,3,0,0,6,6,6,1,N2-5395_Rec.png,0,N2-5395Real.png,1,,,,,,,,,,,,,,,,
,,,,,,,,,,,,,,,,227,1,2023-10-13_10h05.31.918,Online_SceneSrcMD_R,2020.2.10,MacIntel,60,,,,,,,,,,,,,,,,,,,,,,,,,k,0.4349,1,2,1,,,,,,,,,,k,2.8854,1,2,0,0,0,0,1,,,,,,,
,,,,,,,,,,,,,,,,227,1,2023-10-13_10h05.31.918,Online_SceneSrcMD_R,2020.2.10,MacIntel,60,,,,,,,,,,,,,,,,,,,,,,,,,,,,,,0,7,7,7,1,N1-7503_Rec.png,1,N1-7503_SrcRec.png,0,,,,,,,,,,,,,,,,
,,,,,,,,,,,,,,,,227,1,2023-10-13_10h05.31.918,Online_SceneSrcMD_R,2020.2.10,MacIntel,60,,,,,,,,,,,,,,,,,,,,,,,,,l,1.0658,1,3,1,,,,,,,,,,l,1.2526,1,3,0,0,0,0,1,,,,,,,
,,,,,,,,,,,,,,,,227,1,2023-10-13_10h05.31.918,Online_SceneSrcMD_R,2020.2.10,MacIntel,60,,,,,,,,,,,,,,,,,,,,,,,,,,,,,,0,8,8,8,1,N1-2597_Rec.png,1,N1-2597Real.png,1,,,,,,,,,,,,,,,,
,,,,,,,,,,,,,,,,227,1,2023-10-13_10h05.31.918,Online_SceneSrcMD_R,2020.2.10,MacIntel,60,,,,,,,,,,,,,,,,,,,,,,,,,s,1.6209,0,2,0,0,9,9,9,1,E2-9140_Rec.png,0,E2-9140Real.png,1,,,,,,,,,,,,,,,,
,,,,,,,,,,,,,,,,227,1,2023-10-13_10h05.31.918,Online_SceneSrcMD_R,2020.2.10,MacIntel,60,,,,,,,,,,,,,,,,,,,,,,,,,a,2.268,0,3,0,0,10,10,10,1,E1-3160_Rec.png,1,E1-3160_SrcRec.png,0,,,,,,,,,,,,,,,,
,,,,,,,,,,,,,,,,227,1,2023-10-13_10h05.31.918,Online_SceneSrcMD_R,2020.2.10,MacIntel,60,,,,,,,,,,,,,,,,,,,,,,,,,a,0.9567,0,3,0,0,11,11,11,1,N1-5471_Rec.png,1,N1-5471_SrcRec.png,0,,,,,,,,,,,,,,,,
,,,,,,,,,,,,,,,,227,1,2023-10-13_10h05.31.918,Online_SceneSrcMD_R,2020.2.10,MacIntel,60,,,,,,,,,,,,,,,,,,,,,,,,,a,1.1074,0,3,0,0,12,12,12,1,N1-4605_Rec.png,1,N1-4605Real.png,1,,,,,,,,,,,,,,,,
,,,,,,,,,,,,,,,,227,1,2023-10-13_10h05.31.918,Online_SceneSrcMD_R,2020.2.10,MacIntel,60,,,,,,,,,,,,,,,,,,,,,,,,,a,0.8869,0,3,0,0,13,13,13,1,N2-2221_Rec.png,0,N2-2221_SrcRec.png,0,,,,,,,,,,,,,,,,
,,,,,,,,,,,,,,,,227,1,2023-10-13_10h05.31.918,Online_SceneSrcMD_R,2020.2.10,MacIntel,60,,,,,,,,,,,,,,,,,,,,,,,,,a,1.4331,0,3,0,0,14,14,14,1,E2-3400_Rec.png,0,E2-3400Real.png,1,,,,,,,,,,,,,,,,
,,,,,,,,,,,,,,,,227,1,2023-10-13_10h05.31.918,Online_SceneSrcMD_R,2020.2.10,MacIntel,60,,,,,,,,,,,,,,,,,,,,,,,,,a,2.24,0,3,0,0,15,15,15,1,N2-7546_Rec.png,0,N2-7546Real.png,1,,,,,,,,,,,,,,,,
,,,,,,,,,,,,,,,,227,1,2023-10-13_10h05.31.918,Online_SceneSrcMD_R,2020.2.10,MacIntel,60,,,,,,,,,,,,,,,,,,,,,,,,,a,2.1157,0,3,0,0,16,16,16,1,E2-3500_Rec.png,0,E2-3500_SrcRec.png,0,,,,,,,,,,,,,,,,
,,,,,,,,,,,,,,,,227,1,2023-10-13_10h05.31.918,Online_SceneSrcMD_R,2020.2.10,MacIntel,60,,,,,,,,,,,,,,,,,,,,,,,,,a,0.6845,0,3,0,0,17,17,17,1,N2-2518_Rec.png,0,N2-2518_SrcRec.png,0,,,,,,,,,,,,,,,,
,,,,,,,,,,,,,,,,227,1,2023-10-13_10h05.31.918,Online_SceneSrcMD_R,2020.2.10,MacIntel,60,,,,,,,,,,,,,,,,,,,,,,,,,a,0.7184,0,3,0,0,18,18,18,1,E2-9622_Rec.png,0,E2-9622Real.png,1,,,,,,,,,,,,,,,,
,,,,,,,,,,,,,,,,227,1,2023-10-13_10h05.31.918,Online_SceneSrcMD_R,2020.2.10,MacIntel,60,,,,,,,,,,,,,,,,,,,,,,,,,a,1.7151,0,3,0,0,19,19,19,1,E2-9040_Rec.png,0,E2-9040_SrcRec.png,0,,,,,,,,,,,,,,,,
,,,,,,,,,,,,,,,,227,1,2023-10-13_10h05.31.918,Online_SceneSrcMD_R,2020.2.10,MacIntel,60,,,,,,,,,,,,,,,,,,,,,,,,,,,,,,,,,,,,,,,,,,,,,,,,0,2,2,2,1,BlockThree.csv,Src_BlockThree.csv
,,,,,,,,,,,,,,,,227,1,2023-10-13_10h05.31.918,Online_SceneSrcMD_R,2020.2.10,MacIntel,60,,,,,,,,,,,,,,,,,,,,,,,,,a,1.0183,0,3,0,0,0,0,0,1,E2-9230_Rec.png,0,E2-9230Real.png,1,,,,,,,,,,,,,,,,
,,,,,,,,,,,,,,,,227,1,2023-10-13_10h05.31.918,Online_SceneSrcMD_R,2020.2.10,MacIntel,60,,,,,,,,,,,,,,,,,,,,,,,,,a,0.8349,0,3,0,0,1,1,1,1,E2-3170_Rec.png,0,E2-3170_SrcRec.png,0,,,,,,,,,,,,,,,,
,,,,,,,,,,,,,,,,227,1,2023-10-13_10h05.31.918,Online_SceneSrcMD_R,2020.2.10,MacIntel,60,,,,,,,,,,,,,,,,,,,,,,,,,a,1.0543,0,3,0,0,2,2,2,1,N1-2870_Rec.png,1,N1-2870Real.png,1,,,,,,,,,,,,,,,,
,,,,,,,,,,,,,,,,227,1,2023-10-13_10h05.31.918,Online_SceneSrcMD_R,2020.2.10,MacIntel,60,,,,,,,,,,,,,,,,,,,,,,,,,a,1.5955,0,3,0,0,3,3,3,1,N2-1661_Rec.png,0,N2-1661_SrcRec.png,0,,,,,,,,,,,,,,,,
,,,,,,,,,,,,,,,,227,1,2023-10-13_10h05.31.918,Online_SceneSrcMD_R,2020.2.10,MacIntel,60,,,,,,,,,,,,,,,,,,,,,,,,,a,1.8044,0,3,0,0,4,4,4,1,E1-3061_Rec.png,1,E1-3061Real.png,1,,,,,,,,,,,,,,,,
,,,,,,,,,,,,,,,,227,1,2023-10-13_10h05.31.918,Online_SceneSrcMD_R,2020.2.10,MacIntel,60,,,,,,,,,,,,,,,,,,,,,,,,,a,0.9333,0,3,0,0,5,5,5,1,N1-2393_Rec.png,1,N1-2393Real.png,1,,,,,,,,,,,,,,,,
,,,,,,,,,,,,,,,,227,1,2023-10-13_10h05.31.918,Online_SceneSrcMD_R,2020.2.10,MacIntel,60,,,,,,,,,,,,,,,,,,,,,,,,,a,1.0503,0,3,0,0,6,6,6,1,N2-2616_Rec.png,0,N2-2616_SrcRec.png,0,,,,,,,,,,,,,,,,
,,,,,,,,,,,,,,,,227,1,2023-10-13_10h05.31.918,Online_SceneSrcMD_R,2020.2.10,MacIntel,60,,,,,,,,,,,,,,,,,,,,,,,,,a,1.1738,0,3,0,0,7,7,7,1,E2-8230_Rec.png,0,E2-8230_SrcRec.png,0,,,,,,,,,,,,,,,,
,,,,,,,,,,,,,,,,227,1,2023-10-13_10h05.31.918,Online_SceneSrcMD_R,2020.2.10,MacIntel,60,,,,,,,,,,,,,,,,,,,,,,,,,a,1.5414,0,3,0,0,8,8,8,1,E1-1525_Rec.png,1,E1-1525Real.png,1,,,,,,,,,,,,,,,,
,,,,,,,,,,,,,,,,227,1,2023-10-13_10h05.31.918,Online_SceneSrcMD_R,2020.2.10,MacIntel,60,,,,,,,,,,,,,,,,,,,,,,,,,l,1.1362,1,3,1,,,,,,,,,,k,1.2899,1,2,0,0,0,0,1,,,,,,,
,,,,,,,,,,,,,,,,227,1,2023-10-13_10h05.31.918,Online_SceneSrcMD_R,2020.2.10,MacIntel,60,,,,,,,,,,,,,,,,,,,,,,,,,,,,,,0,9,9,9,1,N1-8311_Rec.png,1,N1-8311Real.png,1,,,,,,,,,,,,,,,,
,,,,,,,,,,,,,,,,227,1,2023-10-13_10h05.31.918,Online_SceneSrcMD_R,2020.2.10,MacIntel,60,,,,,,,,,,,,,,,,,,,,,,,,,k,0.4963,1,2,1,,,,,,,,,,k,3.1222,1,2,0,0,0,0,1,,,,,,,
,,,,,,,,,,,,,,,,227,1,2023-10-13_10h05.31.918,Online_SceneSrcMD_R,2020.2.10,MacIntel,60,,,,,,,,,,,,,,,,,,,,,,,,,,,,,,0,10,10,10,1,N2-2235_Rec.png,0,N2-2235_SrcRec.png,0,,,,,,,,,,,,,,,,
,,,,,,,,,,,,,,,,227,1,2023-10-13_10h05.31.918,Online_SceneSrcMD_R,2020.2.10,MacIntel,60,,,,,,,,,,,,,,,,,,,,,,,,,a,0.9702,0,3,0,0,11,11,11,1,E2-3230_Rec.png,0,E2-3230_SrcRec.png,0,,,,,,,,,,,,,,,,
,,,,,,,,,,,,,,,,227,1,2023-10-13_10h05.31.918,Online_SceneSrcMD_R,2020.2.10,MacIntel,60,,,,,,,,,,,,,,,,,,,,,,,,,a,1.3207,0,3,0,0,12,12,12,1,N2-2594_Rec.png,0,N2-2594Real.png,1,,,,,,,,,,,,,,,,
,,,,,,,,,,,,,,,,227,1,2023-10-13_10h05.31.918,Online_SceneSrcMD_R,2020.2.10,MacIntel,60,,,,,,,,,,,,,,,,,,,,,,,,,a,1.5239,0,3,0,0,13,13,13,1,N2-2512_Rec.png,0,N2-2512_SrcRec.png,0,,,,,,,,,,,,,,,,
,,,,,,,,,,,,,,,,227,1,2023-10-13_10h05.31.918,Online_SceneSrcMD_R,2020.2.10,MacIntel,60,,,,,,,,,,,,,,,,,,,,,,,,,l,1.1911,1,3,1,,,,,,,,,,k,0.9066,1,2,0,0,0,0,1,,,,,,,
,,,,,,,,,,,,,,,,227,1,2023-10-13_10h05.31.918,Online_SceneSrcMD_R,2020.2.10,MacIntel,60,,,,,,,,,,,,,,,,,,,,,,,,,,,,,,0,14,14,14,1,E1-3168_Rec.png,1,E1-3168Real.png,1,,,,,,,,,,,,,,,,
,,,,,,,,,,,,,,,,227,1,2023-10-13_10h05.31.918,Online_SceneSrcMD_R,2020.2.10,MacIntel,60,,,,,,,,,,,,,,,,,,,,,,,,,a,1.6745,0,3,0,0,15,15,15,1,E1-2053_Rec.png,1,E1-2053_SrcRec.png,0,,,,,,,,,,,,,,,,
,,,,,,,,,,,,,,,,227,1,2023-10-13_10h05.31.918,Online_SceneSrcMD_R,2020.2.10,MacIntel,60,,,,,,,,,,,,,,,,,,,,,,,,,a,0.7391,0,3,0,0,16,16,16,1,N1-2605_Rec.png,1,N1-2605Real.png,1,,,,,,,,,,,,,,,,
,,,,,,,,,,,,,,,,227,1,2023-10-13_10h05.31.918,Online_SceneSrcMD_R,2020.2.10,MacIntel,60,,,,,,,,,,,,,,,,,,,,,,,,,a,1.8201,0,3,0,0,17,17,17,1,E2-2716_Rec.png,0,E2-2716Real.png,1,,,,,,,,,,,,,,,,
,,,,,,,,,,,,,,,,227,1,2023-10-13_10h05.31.918,Online_SceneSrcMD_R,2020.2.10,MacIntel,60,,,,,,,,,,,,,,,,,,,,,,,,,a,1.3668,0,3,0,0,18,18,18,1,N1-5455_Rec.png,1,N1-5455_SrcRec.png,0,,,,,,,,,,,,,,,,
,,,,,,,,,,,,,,,,227,1,2023-10-13_10h05.31.918,Online_SceneSrcMD_R,2020.2.10,MacIntel,60,,,,,,,,,,,,,,,,,,,,,,,,,l,4.3844,1,3,1,,,,,,,,,,k,0.3758,1,2,0,0,0,0,1,,,,,,,
,,,,,,,,,,,,,,,,227,1,2023-10-13_10h05.31.918,Online_SceneSrcMD_R,2020.2.10,MacIntel,60,,,,,,,,,,,,,,,,,,,,,,,,,,,,,,0,19,19,19,1,E1-3068_Rec.png,1,E1-3068_SrcRec.png,0,,,,,,,,,,,,,,,,
,,,,,,,,,,,,,,,,227,1,2023-10-13_10h05.31.918,Online_SceneSrcMD_R,2020.2.10,MacIntel,60,,,,,,,,,,,,,,,,,,,,,,,,,,,,,,,,,,,,,,,,,,,,,,,,0,3,3,3,1,BlockFour.csv,Src_BlockFour.csv
,,,,,,,,,,,,,,,,227,1,2023-10-13_10h05.31.918,Online_SceneSrcMD_R,2020.2.10,MacIntel,60,,,,,,,,,,,,,,,,,,,,,,,,,a,1.7701,0,3,0,0,0,0,0,1,N2-2606_Rec.png,0,N2-2606Real.png,1,,,,,,,,,,,,,,,,
,,,,,,,,,,,,,,,,227,1,2023-10-13_10h05.31.918,Online_SceneSrcMD_R,2020.2.10,MacIntel,60,,,,,,,,,,,,,,,,,,,,,,,,,a,1.7555,0,3,0,0,1,1,1,1,E2-9410_Rec.png,0,E2-9410Real.png,1,,,,,,,,,,,,,,,,
,,,,,,,,,,,,,,,,227,1,2023-10-13_10h05.31.918,Online_SceneSrcMD_R,2020.2.10,MacIntel,60,,,,,,,,,,,,,,,,,,,,,,,,,a,2.6711,0,3,0,0,2,2,2,1,N1-9070_Rec.png,1,N1-9070_SrcRec.png,0,,,,,,,,,,,,,,,,
,,,,,,,,,,,,,,,,227,1,2023-10-13_10h05.31.918,Online_SceneSrcMD_R,2020.2.10,MacIntel,60,,,,,,,,,,,,,,,,,,,,,,,,,a,2.2054,0,3,0,0,3,3,3,1,E2-9340_Rec.png,0,E2-9340_SrcRec.png,0,,,,,,,,,,,,,,,,
,,,,,,,,,,,,,,,,227,1,2023-10-13_10h05.31.918,Online_SceneSrcMD_R,2020.2.10,MacIntel,60,,,,,,,,,,,,,,,,,,,,,,,,,a,2.3601,0,3,0,0,4,4,4,1,N2-7560_Rec.png,0,N2-7560Real.png,1,,,,,,,,,,,,,,,,
,,,,,,,,,,,,,,,,227,1,2023-10-13_10h05.31.918,Online_SceneSrcMD_R,2020.2.10,MacIntel,60,,,,,,,,,,,,,,,,,,,,,,,,,a,2.6505,0,3,0,0,5,5,5,1,E2-2900_1_Rec.png,0,E2-2900_1Real.png,1,,,,,,,,,,,,,,,,
,,,,,,,,,,,,,,,,227,1,2023-10-13_10h05.31.918,Online_SceneSrcMD_R,2020.2.10,MacIntel,60,,,,,,,,,,,,,,,,,,,,,,,,,a,2.1315,0,3,0,0,6,6,6,1,N2-7550_Rec.png,0,N2-7550_SrcRec.png,0,,,,,,,,,,,,,,,,
,,,,,,,,,,,,,,,,227,1,2023-10-13_10h05.31.918,Online_SceneSrcMD_R,2020.2.10,MacIntel,60,,,,,,,,,,,,,,,,,,,,,,,,,a,2.0882,0,3,0,0,7,7,7,1,N1-5390_Rec.png,1,N1-5390Real.png,1,,,,,,,,,,,,,,,,
,,,,,,,,,,,,,,,,227,1,2023-10-13_10h05.31.918,Online_SceneSrcMD_R,2020.2.10,MacIntel,60,,,,,,,,,,,,,,,,,,,,,,,,,a,0.953,0,3,0,0,8,8,8,1,E1-3150_Rec.png,1,E1-3150_SrcRec.png,0,,,,,,,,,,,,,,,,
,,,,,,,,,,,,,,,,227,1,2023-10-13_10h05.31.918,Online_SceneSrcMD_R,2020.2.10,MacIntel,60,,,,,,,,,,,,,,,,,,,,,,,,,l,0.9389,1,3,1,,,,,,,,,,k,1.1714,1,2,0,0,0,0,1,,,,,,,
,,,,,,,,,,,,,,,,227,1,2023-10-13_10h05.31.918,Online_SceneSrcMD_R,2020.2.10,MacIntel,60,,,,,,,,,,,,,,,,,,,,,,,,,,,,,,0,9,9,9,1,E2-9582_Rec.png,0,E2-9582Real.png,1,,,,,,,,,,,,,,,,
,,,,,,,,,,,,,,,,227,1,2023-10-13_10h05.31.918,Online_SceneSrcMD_R,2020.2.10,MacIntel,60,,,,,,,,,,,,,,,,,,,,,,,,,a,1.4842,0,3,0,0,10,10,10,1,E2-9420_Rec.png,0,E2-9420_SrcRec.png,0,,,,,,,,,,,,,,,,
,,,,,,,,,,,,,,,,227,1,2023-10-13_10h05.31.918,Online_SceneSrcMD_R,2020.2.10,MacIntel,60,,,,,,,,,,,,,,,,,,,,,,,,,a,1.0483,0,3,0,0,11,11,11,1,N1-2485_Rec.png,1,N1-2485_SrcRec.png,0,,,,,,,,,,,,,,,,
,,,,,,,,,,,,,,,,227,1,2023-10-13_10h05.31.918,Online_SceneSrcMD_R,2020.2.10,MacIntel,60,,,,,,,,,,,,,,,,,,,,,,,,,a,0.5722,0,3,0,0,12,12,12,1,N2-7491_Rec.png,0,N2-7491Real.png,1,,,,,,,,,,,,,,,,
,,,,,,,,,,,,,,,,227,1,2023-10-13_10h05.31.918,Online_SceneSrcMD_R,2020.2.10,MacIntel,60,,,,,,,,,,,,,,,,,,,,,,,,,a,1.1721,0,3,0,0,13,13,13,1,E1-2691_Rec.png,1,E1-2691Real.png,1,,,,,,,,,,,,,,,,
,,,,,,,,,,,,,,,,227,1,2023-10-13_10h05.31.918,Online_SceneSrcMD_R,2020.2.10,MacIntel,60,,,,,,,,,,,,,,,,,,,,,,,,,a,1.9711,0,3,0,0,14,14,14,1,N1-7640_Rec.png,1,N1-7640_SrcRec.png,0,,,,,,,,,,,,,,,,
,,,,,,,,,,,,,,,,227,1,2023-10-13_10h05.31.918,Online_SceneSrcMD_R,2020.2.10,MacIntel,60,,,,,,,,,,,,,,,,,,,,,,,,,a,2.9163,0,3,0,0,15,15,15,1,E1-9253_Rec.png,1,E1-9253_SrcRec.png,0,,,,,,,,,,,,,,,,
,,,,,,,,,,,,,,,,227,1,2023-10-13_10h05.31.918,Online_SceneSrcMD_R,2020.2.10,MacIntel,60,,,,,,,,,,,,,,,,,,,,,,,,,a,1.9044,0,3,0,0,16,16,16,1,N2-6570_2_Rec.png,0,N2-6570_2Real.png,1,,,,,,,,,,,,,,,,
,,,,,,,,,,,,,,,,227,1,2023-10-13_10h05.31.918,Online_SceneSrcMD_R,2020.2.10,MacIntel,60,,,,,,,,,,,,,,,,,,,,,,,,,l,1.3001,1,3,1,,,,,,,,,,k,1.2201,1,2,0,0,0,0,1,,,,,,,
,,,,,,,,,,,,,,,,227,1,2023-10-13_10h05.31.918,Online_SceneSrcMD_R,2020.2.10,MacIntel,60,,,,,,,,,,,,,,,,,,,,,,,,,,,,,,0,17,17,17,1,E1-9250_Rec.png,1,E1-9250Real.png,1,,,,,,,,,,,,,,,,
,,,,,,,,,,,,,,,,227,1,2023-10-13_10h05.31.918,Online_SceneSrcMD_R,2020.2.10,MacIntel,60,,,,,,,,,,,,,,,,,,,,,,,,,a,0.8397,0,3,0,0,18,18,18,1,E1-9600_Rec.png,1,E1-9600_SrcRec.png,0,,,,,,,,,,,,,,,,
,,,,,,,,,,,,,,,,227,1,2023-10-13_10h05.31.918,Online_SceneSrcMD_R,2020.2.10,MacIntel,60,,,,,,,,,,,,,,,,,,,,,,,,,a,3.6357,0,3,0,0,19,19,19,1,N1-1947_Rec.png,1,N1-1947_SrcRec.png,0,,,,,,,,,,,,,,,,
,,,,,,,,,,,,,,,,227,1,2023-10-13_10h05.31.918,Online_SceneSrcMD_R,2020.2.10,MacIntel,60,,,,,,,,,,,,,,,,,,,,,,,,,,,,,,,,,,,,,,,,,,,,,,,,0,4,4,4,1,BlockFive.csv,Src_BlockFive.csv
,,,,,,,,,,,,,,,,227,1,2023-10-13_10h05.31.918,Online_SceneSrcMD_R,2020.2.10,MacIntel,60,,,,,,,,,,,,,,,,,,,,,,,,,a,0.973,0,3,0,0,0,0,0,1,E1-9810_Rec.png,1,E1-9810Real.png,1,,,,,,,,,,,,,,,,
,,,,,,,,,,,,,,,,227,1,2023-10-13_10h05.31.918,Online_SceneSrcMD_R,2020.2.10,MacIntel,60,,,,,,,,,,,,,,,,,,,,,,,,,a,1.622,0,3,0,0,1,1,1,1,N1-2593_Rec.png,1,N1-2593Real.png,1,,,,,,,,,,,,,,,,
,,,,,,,,,,,,,,,,227,1,2023-10-13_10h05.31.918,Online_SceneSrcMD_R,2020.2.10,MacIntel,60,,,,,,,,,,,,,,,,,,,,,,,,,a,1.5528,0,3,0,0,2,2,2,1,E1-9830_Rec.png,1,E1-9830_SrcRec.png,0,,,,,,,,,,,,,,,,
,,,,,,,,,,,,,,,,227,1,2023-10-13_10h05.31.918,Online_SceneSrcMD_R,2020.2.10,MacIntel,60,,,,,,,,,,,,,,,,,,,,,,,,,a,2.4943,0,3,0,0,3,3,3,1,N2-2200_Rec.png,0,N2-2200_SrcRec.png,0,,,,,,,,,,,,,,,,
,,,,,,,,,,,,,,,,227,1,2023-10-13_10h05.31.918,Online_SceneSrcMD_R,2020.2.10,MacIntel,60,,,,,,,,,,,,,,,,,,,,,,,,,l,1.072,1,3,1,,,,,,,,,,j,1.4751,1,1,0,0,0,0,1,,,,,,,
,,,,,,,,,,,,,,,,227,1,2023-10-13_10h05.31.918,Online_SceneSrcMD_R,2020.2.10,MacIntel,60,,,,,,,,,,,,,,,,,,,,,,,,,,,,,,0,4,4,4,1,N1-8041_Rec.png,1,N1-8041Real.png,1,,,,,,,,,,,,,,,,
,,,,,,,,,,,,,,,,227,1,2023-10-13_10h05.31.918,Online_SceneSrcMD_R,2020.2.10,MacIntel,60,,,,,,,,,,,,,,,,,,,,,,,,,a,0.9528,0,3,0,0,5,5,5,1,E1-9180_Rec.png,1,E1-9180Real.png,1,,,,,,,,,,,,,,,,
,,,,,,,,,,,,,,,,227,1,2023-10-13_10h05.31.918,Online_SceneSrcMD_R,2020.2.10,MacIntel,60,,,,,,,,,,,,,,,,,,,,,,,,,a,0.7507,0,3,0,0,6,6,6,1,N2-2620_Rec.png,0,N2-2620_SrcRec.png,0,,,,,,,,,,,,,,,,
,,,,,,,,,,,,,,,,227,1,2023-10-13_10h05.31.918,Online_SceneSrcMD_R,2020.2.10,MacIntel,60,,,,,,,,,,,,,,,,,,,,,,,,,a,0.9431,0,3,0,0,7,7,7,1,E2-3266_Rec.png,0,E2-3266_SrcRec.png,0,,,,,,,,,,,,,,,,
,,,,,,,,,,,,,,,,227,1,2023-10-13_10h05.31.918,Online_SceneSrcMD_R,2020.2.10,MacIntel,60,,,,,,,,,,,,,,,,,,,,,,,,,a,0.8285,0,3,0,0,8,8,8,1,N2-2270_Rec.png,0,N2-2270Real.png,1,,,,,,,,,,,,,,,,
,,,,,,,,,,,,,,,,227,1,2023-10-13_10h05.31.918,Online_SceneSrcMD_R,2020.2.10,MacIntel,60,,,,,,,,,,,,,,,,,,,,,,,,,l,0.9181,1,3,1,,,,,,,,,,k,1.0278,1,2,0,0,0,0,1,,,,,,,
,,,,,,,,,,,,,,,,227,1,2023-10-13_10h05.31.918,Online_SceneSrcMD_R,2020.2.10,MacIntel,60,,,,,,,,,,,,,,,,,,,,,,,,,,,,,,0,9,9,9,1,N1-2240_Rec.png,1,N1-2240_SrcRec.png,0,,,,,,,,,,,,,,,,
,,,,,,,,,,,,,,,,227,1,2023-10-13_10h05.31.918,Online_SceneSrcMD_R,2020.2.10,MacIntel,60,,,,,,,,,,,,,,,,,,,,,,,,,a,0.7164,0,3,0,0,10,10,10,1,N2-5779_Rec.png,0,N2-5779Real.png,1,,,,,,,,,,,,,,,,
,,,,,,,,,,,,,,,,227,1,2023-10-13_10h05.31.918,Online_SceneSrcMD_R,2020.2.10,MacIntel,60,,,,,,,,,,,,,,,,,,,,,,,,,a,1.435,0,3,0,0,11,11,11,1,E1-1274_Rec.png,1,E1-1274Real.png,1,,,,,,,,,,,,,,,,
,,,,,,,,,,,,,,,,227,1,2023-10-13_10h05.31.918,Online_SceneSrcMD_R,2020.2.10,MacIntel,60,,,,,,,,,,,,,,,,,,,,,,,,,a,0.9489,0,3,0,0,12,12,12,1,E2-9921_Rec.png,0,E2-9921_SrcRec.png,0,,,,,,,,,,,,,,,,
,,,,,,,,,,,,,,,,227,1,2023-10-13_10h05.31.918,Online_SceneSrcMD_R,2020.2.10,MacIntel,60,,,,,,,,,,,,,,,,,,,,,,,,,a,0.8733,0,3,0,0,13,13,13,1,E1-2717_Rec.png,1,E1-2717Real.png,1,,,,,,,,,,,,,,,,
,,,,,,,,,,,,,,,,227,1,2023-10-13_10h05.31.918,Online_SceneSrcMD_R,2020.2.10,MacIntel,60,,,,,,,,,,,,,,,,,,,,,,,,,a,2.703,0,3,0,0,14,14,14,1,N1-5994_Rec.png,1,N1-5994_SrcRec.png,0,,,,,,,,,,,,,,,,
,,,,,,,,,,,,,,,,227,1,2023-10-13_10h05.31.918,Online_SceneSrcMD_R,2020.2.10,MacIntel,60,,,,,,,,,,,,,,,,,,,,,,,,,l,3.4347,1,3,1,,,,,,,,,,j,1.179,1,1,0,0,0,0,1,,,,,,,
,,,,,,,,,,,,,,,,227,1,2023-10-13_10h05.31.918,Online_SceneSrcMD_R,2020.2.10,MacIntel,60,,,,,,,,,,,,,,,,,,,,,,,,,,,,,,0,15,15,15,1,N1-5410_Rec.png,1,N1-5410Real.png,1,,,,,,,,,,,,,,,,
,,,,,,,,,,,,,,,,227,1,2023-10-13_10h05.31.918,Online_SceneSrcMD_R,2020.2.10,MacIntel,60,,,,,,,,,,,,,,,,,,,,,,,,,a,0.7985,0,3,0,0,16,16,16,1,E2-2683_Rec.png,0,E2-2683_SrcRec.png,0,,,,,,,,,,,,,,,,
,,,,,,,,,,,,,,,,227,1,2023-10-13_10h05.31.918,Online_SceneSrcMD_R,2020.2.10,MacIntel,60,,,,,,,,,,,,,,,,,,,,,,,,,a,1.5496,0,3,0,0,17,17,17,1,N2-2579_Rec.png,0,N2-2579_SrcRec.png,0,,,,,,,,,,,,,,,,
,,,,,,,,,,,,,,,,227,1,2023-10-13_10h05.31.918,Online_SceneSrcMD_R,2020.2.10,MacIntel,60,,,,,,,,,,,,,,,,,,,,,,,,,a,0.96,0,3,0,0,18,18,18,1,E2-6243_Rec.png,0,E2-6243Real.png,1,,,,,,,,,,,,,,,,
,,,,,,,,,,,,,,,,227,1,2023-10-13_10h05.31.918,Online_SceneSrcMD_R,2020.2.10,MacIntel,60,,,,,,,,,,,,,,,,,,,,,,,,,a,1.018,0,3,0,0,19,19,19,1,E2-9424_Rec.png,0,E2-9424_SrcRec.png,0,,,,,,,,,,,,,,,,
,,,,,,,,,,,,,,,,227,1,2023-10-13_10h05.31.918,Online_SceneSrcMD_R,2020.2.10,MacIntel,60,,,,,,,,,,,,,,,,,,,,,,,,,,,,,,,,,,,,,,,,,,,,,,,,0,5,5,5,1,BlockSix.csv,Src_BlockSix.csv
