Instructions_Loop.thisRepN,Instructions_Loop.thisTrialN,Instructions_Loop.thisN,Instructions_Loop.thisIndex,Instructions_Loop.ran,Top,Top_Bottom,TBMT_int,Middle_Top,Middle,Middle_Bottom,Bottom_Top,Bottom_Middle,Bottom,Photo,Mid_Photo,participant,session,date,expName,psychopyVersion,OS,frameRate,Redo_Instructions_Resp.keys,Redo_Instructions_Resp.rt,Practice_Responding.keys,Practice_Responding.corr,Practice_Responding.rt,Repeat_Loop.thisRepN,Repeat_Loop.thisTrialN,Repeat_Loop.thisN,Repeat_Loop.thisIndex,Repeat_Loop.ran,Practice_Loop.thisRepN,Practice_Loop.thisTrialN,Practice_Loop.thisN,Practice_Loop.thisIndex,Practice_Loop.ran,Prac_Scene,Scale,Prac_Ans,PracticeText,Warning_Sign.thisRepN,Warning_Sign.thisTrialN,Warning_Sign.thisN,Warning_Sign.thisIndex,Warning_Sign.ran,Encoding_Resp.keys,Encoding_Resp.rt,Item_Mem_Response,Item_Conf_Response,Src_LoopRun,Blocks.thisRepN,Blocks.thisTrialN,Blocks.thisN,Blocks.thisIndex,Blocks.ran,Rec_Scene,RecAns,Src_Scene,SrcAns,Src_Resp.keys,Src_Resp.rt,Source_Mem_Response,Source_Conf_Response,Src_Blocks.thisRepN,Src_Blocks.thisTrialN,Src_Blocks.thisN,Src_Blocks.thisIndex,Src_Blocks.ran,Group_Order.thisRepN,Group_Order.thisTrialN,Group_Order.thisN,Group_Order.thisIndex,Group_Order.ran,blockFile,Src_blockFile
0,0,0,0,1,NaN,NaN,NaN,NaN,welcome,NaN,NaN,NaN,press SPACE to continue,Empty.png,Empty.png,232,1,2023-10-26_18h06.36.011,Online_SceneSrcMD_R,2020.2.10,MacIntel,60,,,,,,,,,,,,,,,,,,,,,,,,,,,,,,,,,,,,,,,,,,,,,,,,,,,,,,
0,1,1,1,1,in this experiment you will complete a memory test for the images and colored frames that were presented yesterday.,NaN,NaN,the memory test will include previously seen AND new images.,NaN,NaN,NaN,NaN,press SPACE to continue,Empty.png,Empty.png,232,1,2023-10-26_18h06.36.011,Online_SceneSrcMD_R,2020.2.10,MacIntel,60,,,,,,,,,,,,,,,,,,,,,,,,,,,,,,,,,,,,,,,,,,,,,,,,,,,,,,
0,2,2,2,1,images will be presented on the screen one at a time.,NaN,NaN,six blocks of images will be presented.,NaN,NaN,NaN,NaN,press SPACE to continue,Empty.png,Empty.png,232,1,2023-10-26_18h06.36.011,Online_SceneSrcMD_R,2020.2.10,MacIntel,60,,,,,,,,,,,,,,,,,,,,,,,,,,,,,,,,,,,,,,,,,,,,,,,,,,,,,,
0,3,3,3,1,some of the images will portray scenes with emotional content.,NaN,NaN,if you become uncomfortable please remember that you can leave the experiment at any point without penalty.,NaN,NaN,NaN,NaN,press SPACE to continue,Empty.png,Empty.png,232,1,2023-10-26_18h06.36.011,Online_SceneSrcMD_R,2020.2.10,MacIntel,60,,,,,,,,,,,,,,,,,,,,,,,,,,,,,,,,,,,,,,,,,,,,,,,,,,,,,,
0,4,4,4,1,"you will first report whether you remember previously seeing each image, and your confidence in your response.",when responding refer to the scale below:,NaN,NaN,NaN,use your keyboard to submit your response.,NaN,NaN,press SPACE to continue,Alternative_Scale.png,Empty.png,232,1,2023-10-26_18h06.36.011,Online_SceneSrcMD_R,2020.2.10,MacIntel,60,,,,,,,,,,,,,,,,,,,,,,,,,,,,,,,,,,,,,,,,,,,,,,,,,,,,,,
0,5,5,5,1,"if you DO NOT remember seeing the image previously, use your left hand to respond using either the 'A', 'S', or 'D' keys.",NaN,NaN,NaN,NaN,'A' is Very Confident No (3),'D' is Not Confident No (1),'S' is Somewhat Confident No (2),press SPACE to continue,Alternative_Scale.png,Empty.png,232,1,2023-10-26_18h06.36.011,Online_SceneSrcMD_R,2020.2.10,MacIntel,60,,,,,,,,,,,,,,,,,,,,,,,,,,,,,,,,,,,,,,,,,,,,,,,,,,,,,,
0,6,6,6,1,"if you DO remember seeing the image previously, use your right hand to respond using either the 'J', 'K', or 'L' keys.",NaN,NaN,NaN,NaN,'J' is Not Confident Yes (1),'L' is Very Confident Yes (3),'K' is Somewhat Confident Yes (2),press SPACE to continue,Alternative_Scale.png,Empty.png,232,1,2023-10-26_18h06.36.011,Online_SceneSrcMD_R,2020.2.10,MacIntel,60,,,,,,,,,,,,,,,,,,,,,,,,,,,,,,,,,,,,,,,,,,,,,,,,,,,,,,
0,7,7,7,1,NaN,keep both hands on the keyboard once you begin the memory test.,NaN,NaN,NaN,"we are interested in your first reaction, so respond at your own pace but please report your initial ""gut reaction"".",NaN,NaN,press SPACE to continue,Empty.png,Empty.png,232,1,2023-10-26_18h06.36.011,Online_SceneSrcMD_R,2020.2.10,MacIntel,60,,,,,,,,,,,,,,,,,,,,,,,,,,,,,,,,,,,,,,,,,,,,,,,,,,,,,,
0,8,8,8,1,NaN,NaN,please use the full range of the scale.,NaN,NaN,NaN,NaN,NaN,press SPACE to continue,Empty.png,Empty.png,232,1,2023-10-26_18h06.36.011,Online_SceneSrcMD_R,2020.2.10,MacIntel,60,,,,,,,,,,,,,,,,,,,,,,,,,,,,,,,,,,,,,,,,,,,,,,,,,,,,,,
0,9,9,9,1,example of what you will see when reporting your memory for the image:,NaN,NaN,NaN,NaN,If you very confidently remembered this image you would press 'L'.,"If you very confidently did not remember, you would press 'A'.",NaN,press SPACE to continue,Empty.png,TS03scene_Rec.png,232,1,2023-10-26_18h06.36.011,Online_SceneSrcMD_R,2020.2.10,MacIntel,60,,,,,,,,,,,,,,,,,,,,,,,,,,,,,,,,,,,,,,,,,,,,,,,,,,,,,,
0,10,10,10,1,"for remembered images, your memory and associated confidence will also be tested for the frame color which surrounded the image.",when responding refer to the scale below:,NaN,NaN,NaN,use your keyboard to submit your response.,NaN,NaN,press SPACE to continue,Alternative_Scale.png,Empty.png,232,1,2023-10-26_18h06.36.011,Online_SceneSrcMD_R,2020.2.10,MacIntel,60,,,,,,,,,,,,,,,,,,,,,,,,,,,,,,,,,,,,,,,,,,,,,,,,,,,,,,
0,11,11,11,1,"if the color of the frame around the image differs from what you remember, use your left hand to respond using either the 'A', 'S', or 'D' keys.",NaN,NaN,NaN,NaN,'A' is Very Confident No (3),'D' is Not Confident No (1),'S' is Somewhat Confident No (2),press SPACE to continue,Alternative_Scale.png,Empty.png,232,1,2023-10-26_18h06.36.011,Online_SceneSrcMD_R,2020.2.10,MacIntel,60,,,,,,,,,,,,,,,,,,,,,,,,,,,,,,,,,,,,,,,,,,,,,,,,,,,,,,
0,12,12,12,1,"if the color of the frame around the image matches what you remember, use your right hand to respond using either the 'J', 'K', or 'L' keys.",NaN,NaN,NaN,NaN,'J' is Not Confident Yes (1),'L' is Very Confident Yes (3),'K' is Somewhat Confident Yes (2),press SPACE to continue,Alternative_Scale.png,Empty.png,232,1,2023-10-26_18h06.36.011,Online_SceneSrcMD_R,2020.2.10,MacIntel,60,,,,,,,,,,,,,,,,,,,,,,,,,,,,,,,,,,,,,,,,,,,,,,,,,,,,,,
0,13,13,13,1,example of what you will see when reporting your memory for the frame color:,NaN,NaN,NaN,NaN,If you very confidently remembered a yellow frame around the image you would press 'L'.,"If you very confidently remembered another color around the frame, you would press 'A'.",NaN,press SPACE to continue,Empty.png,TS03scene_SrcRec.png,232,1,2023-10-26_18h06.36.011,Online_SceneSrcMD_R,2020.2.10,MacIntel,60,,,,,,,,,,,,,,,,,,,,,,,,,,,,,,,,,,,,,,,,,,,,,,,,,,,,,,
0,14,14,14,1,NaN,NaN,NaN,this is the end of the instructions,NaN,NaN,NaN,NaN,press SPACE to continue,Empty.png,Empty.png,232,1,2023-10-26_18h06.36.011,Online_SceneSrcMD_R,2020.2.10,MacIntel,60,,,,,,,,,,,,,,,,,,,,,,,,,,,,,,,,,,,,,,,,,,,,,,,,,,,,,,
,,,,,,,,,,,,,,,,232,1,2023-10-26_18h06.36.011,Online_SceneSrcMD_R,2020.2.10,MacIntel,60,p,2.243,p,1,3.7496,0,0,0,0,1,,,,,,,,,,,,,,,,,,,,,,,,,,,,,,,,,,,,,,,,,,,,
,,,,,,,,,,,,,,,,232,1,2023-10-26_18h06.36.011,Online_SceneSrcMD_R,2020.2.10,MacIntel,60,,,,,,,,,,,0,0,0,0,1,Empty.png,Alternative_Scale.png,p,after memorizing the scale below press 'P' to proceed.,,,,,,,,,,,,,,,,,,,,,,,,,,,,,,,,,,,
,,,,,,,,,,,,,,,,232,1,2023-10-26_18h06.36.011,Online_SceneSrcMD_R,2020.2.10,MacIntel,60,,,a,0,7.7223,,,,,,,,,,,,,,,0,0,0,0,1,,,,,,,,,,,,,,,,,,,,,,,,,,,,,,
,,,,,,,,,,,,,,,,232,1,2023-10-26_18h06.36.011,Online_SceneSrcMD_R,2020.2.10,MacIntel,60,,,,,,0,0,0,0,1,,,,,,,,,,,,,,,,,,,,,,,,,,,,,,,,,,,,,,,,,,,,
,,,,,,,,,,,,,,,,232,1,2023-10-26_18h06.36.011,Online_SceneSrcMD_R,2020.2.10,MacIntel,60,,,l,1,2.2044,1,0,1,0,1,,,,,,,,,,,,,,,,,,,,,,,,,,,,,,,,,,,,,,,,,,,,
,,,,,,,,,,,,,,,,232,1,2023-10-26_18h06.36.011,Online_SceneSrcMD_R,2020.2.10,MacIntel,60,,,,,,,,,,,0,1,1,1,1,TS01scene_Rec.png,Empty.png,l,what would you respond if you were very confident you remembered seeing this image?,,,,,,,,,,,,,,,,,,,,,,,,,,,,,,,,,,,
,,,,,,,,,,,,,,,,232,1,2023-10-26_18h06.36.011,Online_SceneSrcMD_R,2020.2.10,MacIntel,60,,,l,0,1.3556,,,,,,,,,,,,,,,0,0,0,0,1,,,,,,,,,,,,,,,,,,,,,,,,,,,,,,
,,,,,,,,,,,,,,,,232,1,2023-10-26_18h06.36.011,Online_SceneSrcMD_R,2020.2.10,MacIntel,60,,,,,,0,0,0,0,1,,,,,,,,,,,,,,,,,,,,,,,,,,,,,,,,,,,,,,,,,,,,
,,,,,,,,,,,,,,,,232,1,2023-10-26_18h06.36.011,Online_SceneSrcMD_R,2020.2.10,MacIntel,60,,,k,0,1.1134,,,,,,,,,,,,,,,0,0,0,0,1,,,,,,,,,,,,,,,,,,,,,,,,,,,,,,
,,,,,,,,,,,,,,,,232,1,2023-10-26_18h06.36.011,Online_SceneSrcMD_R,2020.2.10,MacIntel,60,,,,,,1,0,1,0,1,,,,,,,,,,,,,,,,,,,,,,,,,,,,,,,,,,,,,,,,,,,,
,,,,,,,,,,,,,,,,232,1,2023-10-26_18h06.36.011,Online_SceneSrcMD_R,2020.2.10,MacIntel,60,,,a,1,2.4071,2,0,2,0,1,,,,,,,,,,,,,,,,,,,,,,,,,,,,,,,,,,,,,,,,,,,,
,,,,,,,,,,,,,,,,232,1,2023-10-26_18h06.36.011,Online_SceneSrcMD_R,2020.2.10,MacIntel,60,,,,,,,,,,,0,2,2,2,1,TS01scene_SrcRec.png,Empty.png,a,respond as if you very confidently remembered another border color around this photo.,,,,,,,,,,,,,,,,,,,,,,,,,,,,,,,,,,,
,,,,,,,,,,,,,,,,232,1,2023-10-26_18h06.36.011,Online_SceneSrcMD_R,2020.2.10,MacIntel,60,,,a,1,1.5386,0,0,0,0,1,,,,,,,,,,,,,,,,,,,,,,,,,,,,,,,,,,,,,,,,,,,,
,,,,,,,,,,,,,,,,232,1,2023-10-26_18h06.36.011,Online_SceneSrcMD_R,2020.2.10,MacIntel,60,,,,,,,,,,,0,3,3,3,1,TS05scene_Rec.png,Empty.png,a,what would you respond if you were very confident you did not remember seeing this image?,,,,,,,,,,,,,,,,,,,,,,,,,,,,,,,,,,,
,,,,,,,,,,,,,,,,232,1,2023-10-26_18h06.36.011,Online_SceneSrcMD_R,2020.2.10,MacIntel,60,,,a,0,1.4484,,,,,,,,,,,,,,,0,0,0,0,1,,,,,,,,,,,,,,,,,,,,,,,,,,,,,,
,,,,,,,,,,,,,,,,232,1,2023-10-26_18h06.36.011,Online_SceneSrcMD_R,2020.2.10,MacIntel,60,,,,,,0,0,0,0,1,,,,,,,,,,,,,,,,,,,,,,,,,,,,,,,,,,,,,,,,,,,,
,,,,,,,,,,,,,,,,232,1,2023-10-26_18h06.36.011,Online_SceneSrcMD_R,2020.2.10,MacIntel,60,,,l,0,0.5053,,,,,,,,,,,,,,,0,0,0,0,1,,,,,,,,,,,,,,,,,,,,,,,,,,,,,,
,,,,,,,,,,,,,,,,232,1,2023-10-26_18h06.36.011,Online_SceneSrcMD_R,2020.2.10,MacIntel,60,,,,,,1,0,1,0,1,,,,,,,,,,,,,,,,,,,,,,,,,,,,,,,,,,,,,,,,,,,,
,,,,,,,,,,,,,,,,232,1,2023-10-26_18h06.36.011,Online_SceneSrcMD_R,2020.2.10,MacIntel,60,,,d,0,3.5168,,,,,,,,,,,,,,,0,0,0,0,1,,,,,,,,,,,,,,,,,,,,,,,,,,,,,,
,,,,,,,,,,,,,,,,232,1,2023-10-26_18h06.36.011,Online_SceneSrcMD_R,2020.2.10,MacIntel,60,,,,,,2,0,2,0,1,,,,,,,,,,,,,,,,,,,,,,,,,,,,,,,,,,,,,,,,,,,,
,,,,,,,,,,,,,,,,232,1,2023-10-26_18h06.36.011,Online_SceneSrcMD_R,2020.2.10,MacIntel,60,,,j,1,2.8496,3,0,3,0,1,,,,,,,,,,,,,,,,,,,,,,,,,,,,,,,,,,,,,,,,,,,,
,,,,,,,,,,,,,,,,232,1,2023-10-26_18h06.36.011,Online_SceneSrcMD_R,2020.2.10,MacIntel,60,,,,,,,,,,,0,4,4,4,1,TS04scene_Rec.png,Empty.png,j,what would you respond if you were not confident you remembered seeing this image?,,,,,,,,,,,,,,,,,,,,,,,,,,,,,,,,,,,
,,,,,,,,,,,,,,,,232,1,2023-10-26_18h06.36.011,Online_SceneSrcMD_R,2020.2.10,MacIntel,60,,,l,0,1.6622,,,,,,,,,,,,,,,0,0,0,0,1,,,,,,,,,,,,,,,,,,,,,,,,,,,,,,
,,,,,,,,,,,,,,,,232,1,2023-10-26_18h06.36.011,Online_SceneSrcMD_R,2020.2.10,MacIntel,60,,,,,,0,0,0,0,1,,,,,,,,,,,,,,,,,,,,,,,,,,,,,,,,,,,,,,,,,,,,
,,,,,,,,,,,,,,,,232,1,2023-10-26_18h06.36.011,Online_SceneSrcMD_R,2020.2.10,MacIntel,60,,,a,1,5.4486,1,0,1,0,1,,,,,,,,,,,,,,,,,,,,,,,,,,,,,,,,,,,,,,,,,,,,
,,,,,,,,,,,,,,,,232,1,2023-10-26_18h06.36.011,Online_SceneSrcMD_R,2020.2.10,MacIntel,60,,,,,,,,,,,0,5,5,5,1,TS04scene_SrcRec.png,Empty.png,a,respond as if you very confidently remembered another border color around this photo.,,,,,,,,,,,,,,,,,,,,,,,,,,,,,,,,,,,
,,,,,,,,,,,,,,,,232,1,2023-10-26_18h06.36.011,Online_SceneSrcMD_R,2020.2.10,MacIntel,60,,,a,0,1.7808,,,,,,,,,,,,,,,0,0,0,0,1,,,,,,,,,,,,,,,,,,,,,,,,,,,,,,
,,,,,,,,,,,,,,,,232,1,2023-10-26_18h06.36.011,Online_SceneSrcMD_R,2020.2.10,MacIntel,60,,,,,,0,0,0,0,1,,,,,,,,,,,,,,,,,,,,,,,,,,,,,,,,,,,,,,,,,,,,
,,,,,,,,,,,,,,,,232,1,2023-10-26_18h06.36.011,Online_SceneSrcMD_R,2020.2.10,MacIntel,60,,,s,1,0.4941,1,0,1,0,1,,,,,,,,,,,,,,,,,,,,,,,,,,,,,,,,,,,,,,,,,,,,
,,,,,,,,,,,,,,,,232,1,2023-10-26_18h06.36.011,Online_SceneSrcMD_R,2020.2.10,MacIntel,60,,,,,,,,,,,0,6,6,6,1,TS08scene_Rec.png,Empty.png,s,what would you respond if you were somewhat confident you did not remember seeing this image?,,,,,,,,,,,,,,,,,,,,,,,,,,,,,,,,,,,
,,,,,,,,,,,,,,,,232,1,2023-10-26_18h06.36.011,Online_SceneSrcMD_R,2020.2.10,MacIntel,60,,,s,0,1.7369,,,,,,,,,,,,,,,0,0,0,0,1,,,,,,,,,,,,,,,,,,,,,,,,,,,,,,
,,,,,,,,,,,,,,,,232,1,2023-10-26_18h06.36.011,Online_SceneSrcMD_R,2020.2.10,MacIntel,60,,,,,,0,0,0,0,1,,,,,,,,,,,,,,,,,,,,,,,,,,,,,,,,,,,,,,,,,,,,
,,,,,,,,,,,,,,,,232,1,2023-10-26_18h06.36.011,Online_SceneSrcMD_R,2020.2.10,MacIntel,60,,,k,1,0.3158,1,0,1,0,1,,,,,,,,,,,,,,,,,,,,,,,,,,,,,,,,,,,,,,,,,,,,
,,,,,,,,,,,,,,,,232,1,2023-10-26_18h06.36.011,Online_SceneSrcMD_R,2020.2.10,MacIntel,60,,,,,,,,,,,0,7,7,7,1,TS02scene_Rec.png,Empty.png,k,what would you respond if you were somewhat confident you remembered seeing this image?,,,,,,,,,,,,,,,,,,,,,,,,,,,,,,,,,,,
,,,,,,,,,,,,,,,,232,1,2023-10-26_18h06.36.011,Online_SceneSrcMD_R,2020.2.10,MacIntel,60,,,l,0,14.0508,,,,,,,,,,,,,,,0,0,0,0,1,,,,,,,,,,,,,,,,,,,,,,,,,,,,,,
,,,,,,,,,,,,,,,,232,1,2023-10-26_18h06.36.011,Online_SceneSrcMD_R,2020.2.10,MacIntel,60,,,,,,0,0,0,0,1,,,,,,,,,,,,,,,,,,,,,,,,,,,,,,,,,,,,,,,,,,,,
,,,,,,,,,,,,,,,,232,1,2023-10-26_18h06.36.011,Online_SceneSrcMD_R,2020.2.10,MacIntel,60,,,s,1,6.5673,1,0,1,0,1,,,,,,,,,,,,,,,,,,,,,,,,,,,,,,,,,,,,,,,,,,,,
,,,,,,,,,,,,,,,,232,1,2023-10-26_18h06.36.011,Online_SceneSrcMD_R,2020.2.10,MacIntel,60,,,,,,,,,,,0,8,8,8,1,TS02scene_SrcRec.png,Empty.png,s,respond as if you somewhat confidently remembered another border color around this photo.,,,,,,,,,,,,,,,,,,,,,,,,,,,,,,,,,,,
,,,,,,,,,,,,,,,,232,1,2023-10-26_18h06.36.011,Online_SceneSrcMD_R,2020.2.10,MacIntel,60,,,l,0,6.3829,,,,,,,,,,,,,,,0,0,0,0,1,,,,,,,,,,,,,,,,,,,,,,,,,,,,,,
,,,,,,,,,,,,,,,,232,1,2023-10-26_18h06.36.011,Online_SceneSrcMD_R,2020.2.10,MacIntel,60,,,,,,0,0,0,0,1,,,,,,,,,,,,,,,,,,,,,,,,,,,,,,,,,,,,,,,,,,,,
,,,,,,,,,,,,,,,,232,1,2023-10-26_18h06.36.011,Online_SceneSrcMD_R,2020.2.10,MacIntel,60,,,s,0,2.3514,,,,,,,,,,,,,,,0,0,0,0,1,,,,,,,,,,,,,,,,,,,,,,,,,,,,,,
,,,,,,,,,,,,,,,,232,1,2023-10-26_18h06.36.011,Online_SceneSrcMD_R,2020.2.10,MacIntel,60,,,,,,1,0,1,0,1,,,,,,,,,,,,,,,,,,,,,,,,,,,,,,,,,,,,,,,,,,,,
,,,,,,,,,,,,,,,,232,1,2023-10-26_18h06.36.011,Online_SceneSrcMD_R,2020.2.10,MacIntel,60,,,a,0,1.6712,,,,,,,,,,,,,,,0,0,0,0,1,,,,,,,,,,,,,,,,,,,,,,,,,,,,,,
,,,,,,,,,,,,,,,,232,1,2023-10-26_18h06.36.011,Online_SceneSrcMD_R,2020.2.10,MacIntel,60,,,,,,2,0,2,0,1,,,,,,,,,,,,,,,,,,,,,,,,,,,,,,,,,,,,,,,,,,,,
,,,,,,,,,,,,,,,,232,1,2023-10-26_18h06.36.011,Online_SceneSrcMD_R,2020.2.10,MacIntel,60,,,d,1,2.0755,3,0,3,0,1,,,,,,,,,,,,,,,,,,,,,,,,,,,,,,,,,,,,,,,,,,,,
,,,,,,,,,,,,,,,,232,1,2023-10-26_18h06.36.011,Online_SceneSrcMD_R,2020.2.10,MacIntel,60,,,,,,,,,,,0,9,9,9,1,TS07scene_Rec.png,Empty.png,d,what would you respond if you were not confident you did not remember seeing this image?,,,,,,,,,,,,,,,,,,,,,,,,,,,,,,,,,,,
,,,,,,,,,,,,,,,,232,1,2023-10-26_18h06.36.011,Online_SceneSrcMD_R,2020.2.10,MacIntel,60,,,k,1,2.1655,0,0,0,0,1,,,,,,,,,,,,,,,,,,,,,,,,,,,,,,,,,,,,,,,,,,,,
,,,,,,,,,,,,,,,,232,1,2023-10-26_18h06.36.011,Online_SceneSrcMD_R,2020.2.10,MacIntel,60,,,,,,,,,,,0,10,10,10,1,TS03scene_SrcRec.png,Empty.png,k,respond as if you somewhat confidently remembered a yellow border around this photo.,,,,,,,,,,,,,,,,,,,,,,,,,,,,,,,,,,,
,,,,,,,,,,,,,,,,232,1,2023-10-26_18h06.36.011,Online_SceneSrcMD_R,2020.2.10,MacIntel,60,,,,,,,,,,,,,,,,,,,,,,,,,a,1.394,0,3,0,0,0,0,0,1,N2-8280_Rec.png,1,N2-8280Real.png,1,,,,,,,,,,,,,,,,
,,,,,,,,,,,,,,,,232,1,2023-10-26_18h06.36.011,Online_SceneSrcMD_R,2020.2.10,MacIntel,60,,,,,,,,,,,,,,,,,,,,,,,,,a,1.0121,0,3,0,0,1,1,1,1,N2-2499_Rec.png,1,N2-2499_SrcRec.png,0,,,,,,,,,,,,,,,,
,,,,,,,,,,,,,,,,232,1,2023-10-26_18h06.36.011,Online_SceneSrcMD_R,2020.2.10,MacIntel,60,,,,,,,,,,,,,,,,,,,,,,,,,l,1.3997,1,3,1,,,,,,,,,,j,2.9682,1,1,0,0,0,0,1,,,,,,,
,,,,,,,,,,,,,,,,232,1,2023-10-26_18h06.36.011,Online_SceneSrcMD_R,2020.2.10,MacIntel,60,,,,,,,,,,,,,,,,,,,,,,,,,,,,,,0,2,2,2,1,E2-3069_Rec.png,1,E2-3069Real.png,1,,,,,,,,,,,,,,,,
,,,,,,,,,,,,,,,,232,1,2023-10-26_18h06.36.011,Online_SceneSrcMD_R,2020.2.10,MacIntel,60,,,,,,,,,,,,,,,,,,,,,,,,,s,1.4918,0,2,0,0,3,3,3,1,E1-6244_Rec.png,0,E1-6244_SrcRec.png,0,,,,,,,,,,,,,,,,
,,,,,,,,,,,,,,,,232,1,2023-10-26_18h06.36.011,Online_SceneSrcMD_R,2020.2.10,MacIntel,60,,,,,,,,,,,,,,,,,,,,,,,,,a,0.6879,0,3,0,0,4,4,4,1,N1-7495_Rec.png,0,N1-7495Real.png,1,,,,,,,,,,,,,,,,
,,,,,,,,,,,,,,,,232,1,2023-10-26_18h06.36.011,Online_SceneSrcMD_R,2020.2.10,MacIntel,60,,,,,,,,,,,,,,,,,,,,,,,,,a,0.4818,0,3,0,0,5,5,5,1,E1-6212_Rec.png,0,E1-6212Real.png,1,,,,,,,,,,,,,,,,
,,,,,,,,,,,,,,,,232,1,2023-10-26_18h06.36.011,Online_SceneSrcMD_R,2020.2.10,MacIntel,60,,,,,,,,,,,,,,,,,,,,,,,,,d,1.8522,0,1,0,0,6,6,6,1,N1-8460_Rec.png,0,N1-8460_SrcRec.png,0,,,,,,,,,,,,,,,,
,,,,,,,,,,,,,,,,232,1,2023-10-26_18h06.36.011,Online_SceneSrcMD_R,2020.2.10,MacIntel,60,,,,,,,,,,,,,,,,,,,,,,,,,l,1.2154,1,3,1,,,,,,,,,,k,0.9723,1,2,0,0,0,0,1,,,,,,,
,,,,,,,,,,,,,,,,232,1,2023-10-26_18h06.36.011,Online_SceneSrcMD_R,2020.2.10,MacIntel,60,,,,,,,,,,,,,,,,,,,,,,,,,,,,,,0,7,7,7,1,E2-7380_Rec.png,1,E2-7380_SrcRec.png,0,,,,,,,,,,,,,,,,
,,,,,,,,,,,,,,,,232,1,2023-10-26_18h06.36.011,Online_SceneSrcMD_R,2020.2.10,MacIntel,60,,,,,,,,,,,,,,,,,,,,,,,,,a,0.883,0,3,0,0,8,8,8,1,N1-9210_Rec.png,0,N1-9210Real.png,1,,,,,,,,,,,,,,,,
,,,,,,,,,,,,,,,,232,1,2023-10-26_18h06.36.011,Online_SceneSrcMD_R,2020.2.10,MacIntel,60,,,,,,,,,,,,,,,,,,,,,,,,,l,1.3998,1,3,1,,,,,,,,,,l,1.4632,1,3,0,0,0,0,1,,,,,,,
,,,,,,,,,,,,,,,,232,1,2023-10-26_18h06.36.011,Online_SceneSrcMD_R,2020.2.10,MacIntel,60,,,,,,,,,,,,,,,,,,,,,,,,,,,,,,0,9,9,9,1,N1-1121_Rec.png,0,N1-1121_SrcRec.png,0,,,,,,,,,,,,,,,,
,,,,,,,,,,,,,,,,232,1,2023-10-26_18h06.36.011,Online_SceneSrcMD_R,2020.2.10,MacIntel,60,,,,,,,,,,,,,,,,,,,,,,,,,l,1.8365,1,3,1,,,,,,,,,,j,1.1214,1,1,0,0,0,0,1,,,,,,,
,,,,,,,,,,,,,,,,232,1,2023-10-26_18h06.36.011,Online_SceneSrcMD_R,2020.2.10,MacIntel,60,,,,,,,,,,,,,,,,,,,,,,,,,,,,,,0,10,10,10,1,E2-9920_Rec.png,1,E2-9920Real.png,1,,,,,,,,,,,,,,,,
,,,,,,,,,,,,,,,,232,1,2023-10-26_18h06.36.011,Online_SceneSrcMD_R,2020.2.10,MacIntel,60,,,,,,,,,,,,,,,,,,,,,,,,,k,2.652,1,2,1,,,,,,,,,,j,1.2531,1,1,0,0,0,0,1,,,,,,,
,,,,,,,,,,,,,,,,232,1,2023-10-26_18h06.36.011,Online_SceneSrcMD_R,2020.2.10,MacIntel,60,,,,,,,,,,,,,,,,,,,,,,,,,,,,,,0,11,11,11,1,E1-6571_Rec.png,0,E1-6571_SrcRec.png,0,,,,,,,,,,,,,,,,
,,,,,,,,,,,,,,,,232,1,2023-10-26_18h06.36.011,Online_SceneSrcMD_R,2020.2.10,MacIntel,60,,,,,,,,,,,,,,,,,,,,,,,,,l,1.77,1,3,1,,,,,,,,,,l,2.6446,1,3,0,0,0,0,1,,,,,,,
,,,,,,,,,,,,,,,,232,1,2023-10-26_18h06.36.011,Online_SceneSrcMD_R,2020.2.10,MacIntel,60,,,,,,,,,,,,,,,,,,,,,,,,,,,,,,0,12,12,12,1,E2-6540_Rec.png,1,E2-6540Real.png,1,,,,,,,,,,,,,,,,
,,,,,,,,,,,,,,,,232,1,2023-10-26_18h06.36.011,Online_SceneSrcMD_R,2020.2.10,MacIntel,60,,,,,,,,,,,,,,,,,,,,,,,,,l,1.2957,1,3,1,,,,,,,,,,l,1.2202,1,3,0,0,0,0,1,,,,,,,
,,,,,,,,,,,,,,,,232,1,2023-10-26_18h06.36.011,Online_SceneSrcMD_R,2020.2.10,MacIntel,60,,,,,,,,,,,,,,,,,,,,,,,,,,,,,,0,13,13,13,1,N2-5875_Rec.png,1,N2-5875Real.png,1,,,,,,,,,,,,,,,,
,,,,,,,,,,,,,,,,232,1,2023-10-26_18h06.36.011,Online_SceneSrcMD_R,2020.2.10,MacIntel,60,,,,,,,,,,,,,,,,,,,,,,,,,l,0.9384,1,3,1,,,,,,,,,,l,1.52,1,3,0,0,0,0,1,,,,,,,
,,,,,,,,,,,,,,,,232,1,2023-10-26_18h06.36.011,Online_SceneSrcMD_R,2020.2.10,MacIntel,60,,,,,,,,,,,,,,,,,,,,,,,,,,,,,,0,14,14,14,1,E2-9500_Rec.png,1,E2-9500_SrcRec.png,0,,,,,,,,,,,,,,,,
,,,,,,,,,,,,,,,,232,1,2023-10-26_18h06.36.011,Online_SceneSrcMD_R,2020.2.10,MacIntel,60,,,,,,,,,,,,,,,,,,,,,,,,,l,0.6328,1,3,1,,,,,,,,,,l,1.1345,1,3,0,0,0,0,1,,,,,,,
,,,,,,,,,,,,,,,,232,1,2023-10-26_18h06.36.011,Online_SceneSrcMD_R,2020.2.10,MacIntel,60,,,,,,,,,,,,,,,,,,,,,,,,,,,,,,0,15,15,15,1,N2-1910_Rec.png,1,N2-1910_SrcRec.png,0,,,,,,,,,,,,,,,,
,,,,,,,,,,,,,,,,232,1,2023-10-26_18h06.36.011,Online_SceneSrcMD_R,2020.2.10,MacIntel,60,,,,,,,,,,,,,,,,,,,,,,,,,a,1.0149,0,3,0,0,16,16,16,1,N1-1670_Rec.png,0,N1-1670Real.png,1,,,,,,,,,,,,,,,,
,,,,,,,,,,,,,,,,232,1,2023-10-26_18h06.36.011,Online_SceneSrcMD_R,2020.2.10,MacIntel,60,,,,,,,,,,,,,,,,,,,,,,,,,s,1.5054,0,2,0,0,17,17,17,1,E1-3220_Rec.png,0,E1-3220Real.png,1,,,,,,,,,,,,,,,,
,,,,,,,,,,,,,,,,232,1,2023-10-26_18h06.36.011,Online_SceneSrcMD_R,2020.2.10,MacIntel,60,,,,,,,,,,,,,,,,,,,,,,,,,s,1.6205,0,2,0,0,18,18,18,1,E1-9561_Rec.png,0,E1-9561_SrcRec.png,0,,,,,,,,,,,,,,,,
,,,,,,,,,,,,,,,,232,1,2023-10-26_18h06.36.011,Online_SceneSrcMD_R,2020.2.10,MacIntel,60,,,,,,,,,,,,,,,,,,,,,,,,,l,1.3348,1,3,1,,,,,,,,,,k,1.3689,1,2,0,0,0,0,1,,,,,,,
,,,,,,,,,,,,,,,,232,1,2023-10-26_18h06.36.011,Online_SceneSrcMD_R,2020.2.10,MacIntel,60,,,,,,,,,,,,,,,,,,,,,,,,,,,,,,0,19,19,19,1,N2-9913_Rec.png,1,N2-9913_SrcRec.png,0,,,,,,,,,,,,,,,,
,,,,,,,,,,,,,,,,232,1,2023-10-26_18h06.36.011,Online_SceneSrcMD_R,2020.2.10,MacIntel,60,,,,,,,,,,,,,,,,,,,,,,,,,,,,,,,,,,,,,,,,,,,,,,,,0,0,0,0,1,BlockSeven.csv,Src_BlockOne.csv
,,,,,,,,,,,,,,,,232,1,2023-10-26_18h06.36.011,Online_SceneSrcMD_R,2020.2.10,MacIntel,60,,,,,,,,,,,,,,,,,,,,,,,,,l,0.9018,1,3,1,,,,,,,,,,l,0.6306,1,3,0,0,0,0,1,,,,,,,
,,,,,,,,,,,,,,,,232,1,2023-10-26_18h06.36.011,Online_SceneSrcMD_R,2020.2.10,MacIntel,60,,,,,,,,,,,,,,,,,,,,,,,,,,,,,,0,0,0,0,1,N2-7600_Rec.png,1,N2-7600Real.png,1,,,,,,,,,,,,,,,,
,,,,,,,,,,,,,,,,232,1,2023-10-26_18h06.36.011,Online_SceneSrcMD_R,2020.2.10,MacIntel,60,,,,,,,,,,,,,,,,,,,,,,,,,a,0.9351,0,3,0,0,1,1,1,1,N1-2383_Rec.png,0,N1-2383_SrcRec.png,0,,,,,,,,,,,,,,,,
,,,,,,,,,,,,,,,,232,1,2023-10-26_18h06.36.011,Online_SceneSrcMD_R,2020.2.10,MacIntel,60,,,,,,,,,,,,,,,,,,,,,,,,,l,0.7203,1,3,1,,,,,,,,,,l,0.6106,1,3,0,0,0,0,1,,,,,,,
,,,,,,,,,,,,,,,,232,1,2023-10-26_18h06.36.011,Online_SceneSrcMD_R,2020.2.10,MacIntel,60,,,,,,,,,,,,,,,,,,,,,,,,,,,,,,0,2,2,2,1,E2-1932_Rec.png,1,E2-1932Real.png,1,,,,,,,,,,,,,,,,
,,,,,,,,,,,,,,,,232,1,2023-10-26_18h06.36.011,Online_SceneSrcMD_R,2020.2.10,MacIntel,60,,,,,,,,,,,,,,,,,,,,,,,,,a,1.2135,0,3,0,0,3,3,3,1,N1-5731_Rec.png,0,N1-5731Real.png,1,,,,,,,,,,,,,,,,
,,,,,,,,,,,,,,,,232,1,2023-10-26_18h06.36.011,Online_SceneSrcMD_R,2020.2.10,MacIntel,60,,,,,,,,,,,,,,,,,,,,,,,,,l,0.9207,1,3,1,,,,,,,,,,l,0.486,1,3,0,0,0,0,1,,,,,,,
,,,,,,,,,,,,,,,,232,1,2023-10-26_18h06.36.011,Online_SceneSrcMD_R,2020.2.10,MacIntel,60,,,,,,,,,,,,,,,,,,,,,,,,,,,,,,0,4,4,4,1,E2-3261_Rec.png,1,E2-3261_SrcRec.png,0,,,,,,,,,,,,,,,,
,,,,,,,,,,,,,,,,232,1,2023-10-26_18h06.36.011,Online_SceneSrcMD_R,2020.2.10,MacIntel,60,,,,,,,,,,,,,,,,,,,,,,,,,l,0.7066,1,3,1,,,,,,,,,,j,2.6919,1,1,0,0,0,0,1,,,,,,,
,,,,,,,,,,,,,,,,232,1,2023-10-26_18h06.36.011,Online_SceneSrcMD_R,2020.2.10,MacIntel,60,,,,,,,,,,,,,,,,,,,,,,,,,,,,,,0,5,5,5,1,E1-3015_Rec.png,0,E1-3015Real.png,1,,,,,,,,,,,,,,,,
,,,,,,,,,,,,,,,,232,1,2023-10-26_18h06.36.011,Online_SceneSrcMD_R,2020.2.10,MacIntel,60,,,,,,,,,,,,,,,,,,,,,,,,,a,2.8299,0,3,0,0,6,6,6,1,E1-9252_Rec.png,0,E1-9252_SrcRec.png,0,,,,,,,,,,,,,,,,
,,,,,,,,,,,,,,,,232,1,2023-10-26_18h06.36.011,Online_SceneSrcMD_R,2020.2.10,MacIntel,60,,,,,,,,,,,,,,,,,,,,,,,,,l,1.393,1,3,1,,,,,,,,,,j,1.7278,1,1,0,0,0,0,1,,,,,,,
,,,,,,,,,,,,,,,,232,1,2023-10-26_18h06.36.011,Online_SceneSrcMD_R,2020.2.10,MacIntel,60,,,,,,,,,,,,,,,,,,,,,,,,,,,,,,0,7,7,7,1,N2-4603_Rec.png,1,N2-4603_SrcRec.png,0,,,,,,,,,,,,,,,,
,,,,,,,,,,,,,,,,232,1,2023-10-26_18h06.36.011,Online_SceneSrcMD_R,2020.2.10,MacIntel,60,,,,,,,,,,,,,,,,,,,,,,,,,s,1.3165,0,2,0,0,8,8,8,1,E1-9911_Rec.png,0,E1-9911Real.png,1,,,,,,,,,,,,,,,,
,,,,,,,,,,,,,,,,232,1,2023-10-26_18h06.36.011,Online_SceneSrcMD_R,2020.2.10,MacIntel,60,,,,,,,,,,,,,,,,,,,,,,,,,l,0.9225,1,3,1,,,,,,,,,,l,0.4909,1,3,0,0,0,0,1,,,,,,,
,,,,,,,,,,,,,,,,232,1,2023-10-26_18h06.36.011,Online_SceneSrcMD_R,2020.2.10,MacIntel,60,,,,,,,,,,,,,,,,,,,,,,,,,,,,,,0,9,9,9,1,E2-9265_Rec.png,1,E2-9265_SrcRec.png,0,,,,,,,,,,,,,,,,
,,,,,,,,,,,,,,,,232,1,2023-10-26_18h06.36.011,Online_SceneSrcMD_R,2020.2.10,MacIntel,60,,,,,,,,,,,,,,,,,,,,,,,,,a,1.235,0,3,0,0,10,10,10,1,N1-2575_Rec.png,0,N1-2575Real.png,1,,,,,,,,,,,,,,,,
,,,,,,,,,,,,,,,,232,1,2023-10-26_18h06.36.011,Online_SceneSrcMD_R,2020.2.10,MacIntel,60,,,,,,,,,,,,,,,,,,,,,,,,,l,1.0081,1,3,1,,,,,,,,,,l,0.2819,1,3,0,0,0,0,1,,,,,,,
,,,,,,,,,,,,,,,,232,1,2023-10-26_18h06.36.011,Online_SceneSrcMD_R,2020.2.10,MacIntel,60,,,,,,,,,,,,,,,,,,,,,,,,,,,,,,0,11,11,11,1,N2-1600_Rec.png,1,N2-1600_SrcRec.png,0,,,,,,,,,,,,,,,,
,,,,,,,,,,,,,,,,232,1,2023-10-26_18h06.36.011,Online_SceneSrcMD_R,2020.2.10,MacIntel,60,,,,,,,,,,,,,,,,,,,,,,,,,l,0.8872,1,3,1,,,,,,,,,,j,0.5539,1,1,0,0,0,0,1,,,,,,,
,,,,,,,,,,,,,,,,232,1,2023-10-26_18h06.36.011,Online_SceneSrcMD_R,2020.2.10,MacIntel,60,,,,,,,,,,,,,,,,,,,,,,,,,,,,,,0,12,12,12,1,E2-6415_Rec.png,1,E2-6415Real.png,1,,,,,,,,,,,,,,,,
,,,,,,,,,,,,,,,,232,1,2023-10-26_18h06.36.011,Online_SceneSrcMD_R,2020.2.10,MacIntel,60,,,,,,,,,,,,,,,,,,,,,,,,,a,0.601,0,3,0,0,13,13,13,1,N2-8465_Rec.png,1,N2-8465Real.png,1,,,,,,,,,,,,,,,,
,,,,,,,,,,,,,,,,232,1,2023-10-26_18h06.36.011,Online_SceneSrcMD_R,2020.2.10,MacIntel,60,,,,,,,,,,,,,,,,,,,,,,,,,a,0.5783,0,3,0,0,14,14,14,1,N1-2500_Rec.png,0,N1-2500_SrcRec.png,0,,,,,,,,,,,,,,,,
,,,,,,,,,,,,,,,,232,1,2023-10-26_18h06.36.011,Online_SceneSrcMD_R,2020.2.10,MacIntel,60,,,,,,,,,,,,,,,,,,,,,,,,,s,1.9363,0,2,0,0,15,15,15,1,E1-3280_Rec.png,0,E1-3280_SrcRec.png,0,,,,,,,,,,,,,,,,
,,,,,,,,,,,,,,,,232,1,2023-10-26_18h06.36.011,Online_SceneSrcMD_R,2020.2.10,MacIntel,60,,,,,,,,,,,,,,,,,,,,,,,,,s,0.834,0,2,0,0,16,16,16,1,N1-1812_Rec.png,0,N1-1812Real.png,1,,,,,,,,,,,,,,,,
,,,,,,,,,,,,,,,,232,1,2023-10-26_18h06.36.011,Online_SceneSrcMD_R,2020.2.10,MacIntel,60,,,,,,,,,,,,,,,,,,,,,,,,,s,1.321,0,2,0,0,17,17,17,1,E2-3350_Rec.png,1,E2-3350Real.png,1,,,,,,,,,,,,,,,,
,,,,,,,,,,,,,,,,232,1,2023-10-26_18h06.36.011,Online_SceneSrcMD_R,2020.2.10,MacIntel,60,,,,,,,,,,,,,,,,,,,,,,,,,s,0.9861,0,2,0,0,18,18,18,1,N2-2840_Rec.png,1,N2-2840_SrcRec.png,0,,,,,,,,,,,,,,,,
,,,,,,,,,,,,,,,,232,1,2023-10-26_18h06.36.011,Online_SceneSrcMD_R,2020.2.10,MacIntel,60,,,,,,,,,,,,,,,,,,,,,,,,,d,1.7041,0,1,0,0,19,19,19,1,E1-9254_Rec.png,0,E1-9254_SrcRec.png,0,,,,,,,,,,,,,,,,
,,,,,,,,,,,,,,,,232,1,2023-10-26_18h06.36.011,Online_SceneSrcMD_R,2020.2.10,MacIntel,60,,,,,,,,,,,,,,,,,,,,,,,,,,,,,,,,,,,,,,,,,,,,,,,,0,1,1,1,1,BlockEight.csv,Src_BlockTwo.csv
,,,,,,,,,,,,,,,,232,1,2023-10-26_18h06.36.011,Online_SceneSrcMD_R,2020.2.10,MacIntel,60,,,,,,,,,,,,,,,,,,,,,,,,,d,1.5738,0,1,0,0,0,0,0,1,E1-1310_Rec.png,0,E1-1310Real.png,1,,,,,,,,,,,,,,,,
,,,,,,,,,,,,,,,,232,1,2023-10-26_18h06.36.011,Online_SceneSrcMD_R,2020.2.10,MacIntel,60,,,,,,,,,,,,,,,,,,,,,,,,,j,0.8422,1,1,1,,,,,,,,,,j,0.4684,1,1,0,0,0,0,1,,,,,,,
,,,,,,,,,,,,,,,,232,1,2023-10-26_18h06.36.011,Online_SceneSrcMD_R,2020.2.10,MacIntel,60,,,,,,,,,,,,,,,,,,,,,,,,,,,,,,0,1,1,1,1,E1-2800_Rec.png,0,E1-2800_SrcRec.png,0,,,,,,,,,,,,,,,,
,,,,,,,,,,,,,,,,232,1,2023-10-26_18h06.36.011,Online_SceneSrcMD_R,2020.2.10,MacIntel,60,,,,,,,,,,,,,,,,,,,,,,,,,j,3.0105,1,1,1,,,,,,,,,,j,0.5725,1,1,0,0,0,0,1,,,,,,,
,,,,,,,,,,,,,,,,232,1,2023-10-26_18h06.36.011,Online_SceneSrcMD_R,2020.2.10,MacIntel,60,,,,,,,,,,,,,,,,,,,,,,,,,,,,,,0,2,2,2,1,E1-2352_2_Rec.png,0,E1-2352_2Real.png,1,,,,,,,,,,,,,,,,
,,,,,,,,,,,,,,,,232,1,2023-10-26_18h06.36.011,Online_SceneSrcMD_R,2020.2.10,MacIntel,60,,,,,,,,,,,,,,,,,,,,,,,,,l,1.1308,1,3,1,,,,,,,,,,l,0.306,1,3,0,0,0,0,1,,,,,,,
,,,,,,,,,,,,,,,,232,1,2023-10-26_18h06.36.011,Online_SceneSrcMD_R,2020.2.10,MacIntel,60,,,,,,,,,,,,,,,,,,,,,,,,,,,,,,0,3,3,3,1,N2-8160_Rec.png,1,N2-8160Real.png,1,,,,,,,,,,,,,,,,
,,,,,,,,,,,,,,,,232,1,2023-10-26_18h06.36.011,Online_SceneSrcMD_R,2020.2.10,MacIntel,60,,,,,,,,,,,,,,,,,,,,,,,,,a,1.3344,0,3,0,0,4,4,4,1,N1-2190_Rec.png,0,N1-2190_SrcRec.png,0,,,,,,,,,,,,,,,,
,,,,,,,,,,,,,,,,232,1,2023-10-26_18h06.36.011,Online_SceneSrcMD_R,2020.2.10,MacIntel,60,,,,,,,,,,,,,,,,,,,,,,,,,a,0.9169,0,3,0,0,5,5,5,1,E1-3550_Rec.png,0,E1-3550_SrcRec.png,0,,,,,,,,,,,,,,,,
,,,,,,,,,,,,,,,,232,1,2023-10-26_18h06.36.011,Online_SceneSrcMD_R,2020.2.10,MacIntel,60,,,,,,,,,,,,,,,,,,,,,,,,,s,2.0684,0,2,0,0,6,6,6,1,N2-5395_Rec.png,1,N2-5395Real.png,1,,,,,,,,,,,,,,,,
,,,,,,,,,,,,,,,,232,1,2023-10-26_18h06.36.011,Online_SceneSrcMD_R,2020.2.10,MacIntel,60,,,,,,,,,,,,,,,,,,,,,,,,,s,0.6437,0,2,0,0,7,7,7,1,N1-7503_Rec.png,0,N1-7503_SrcRec.png,0,,,,,,,,,,,,,,,,
,,,,,,,,,,,,,,,,232,1,2023-10-26_18h06.36.011,Online_SceneSrcMD_R,2020.2.10,MacIntel,60,,,,,,,,,,,,,,,,,,,,,,,,,a,1.9248,0,3,0,0,8,8,8,1,N1-2597_Rec.png,0,N1-2597Real.png,1,,,,,,,,,,,,,,,,
,,,,,,,,,,,,,,,,232,1,2023-10-26_18h06.36.011,Online_SceneSrcMD_R,2020.2.10,MacIntel,60,,,,,,,,,,,,,,,,,,,,,,,,,a,0.7986,0,3,0,0,9,9,9,1,E2-9140_Rec.png,1,E2-9140Real.png,1,,,,,,,,,,,,,,,,
,,,,,,,,,,,,,,,,232,1,2023-10-26_18h06.36.011,Online_SceneSrcMD_R,2020.2.10,MacIntel,60,,,,,,,,,,,,,,,,,,,,,,,,,a,1.7094,0,3,0,0,10,10,10,1,E1-3160_Rec.png,0,E1-3160_SrcRec.png,0,,,,,,,,,,,,,,,,
,,,,,,,,,,,,,,,,232,1,2023-10-26_18h06.36.011,Online_SceneSrcMD_R,2020.2.10,MacIntel,60,,,,,,,,,,,,,,,,,,,,,,,,,a,0.8553,0,3,0,0,11,11,11,1,N1-5471_Rec.png,0,N1-5471_SrcRec.png,0,,,,,,,,,,,,,,,,
,,,,,,,,,,,,,,,,232,1,2023-10-26_18h06.36.011,Online_SceneSrcMD_R,2020.2.10,MacIntel,60,,,,,,,,,,,,,,,,,,,,,,,,,d,1.8569,0,1,0,0,12,12,12,1,N1-4605_Rec.png,0,N1-4605Real.png,1,,,,,,,,,,,,,,,,
,,,,,,,,,,,,,,,,232,1,2023-10-26_18h06.36.011,Online_SceneSrcMD_R,2020.2.10,MacIntel,60,,,,,,,,,,,,,,,,,,,,,,,,,d,0.5536,0,1,0,0,13,13,13,1,N2-2221_Rec.png,1,N2-2221_SrcRec.png,0,,,,,,,,,,,,,,,,
,,,,,,,,,,,,,,,,232,1,2023-10-26_18h06.36.011,Online_SceneSrcMD_R,2020.2.10,MacIntel,60,,,,,,,,,,,,,,,,,,,,,,,,,l,0.8263,1,3,1,,,,,,,,,,j,0.716,1,1,0,0,0,0,1,,,,,,,
,,,,,,,,,,,,,,,,232,1,2023-10-26_18h06.36.011,Online_SceneSrcMD_R,2020.2.10,MacIntel,60,,,,,,,,,,,,,,,,,,,,,,,,,,,,,,0,14,14,14,1,E2-3400_Rec.png,1,E2-3400Real.png,1,,,,,,,,,,,,,,,,
,,,,,,,,,,,,,,,,232,1,2023-10-26_18h06.36.011,Online_SceneSrcMD_R,2020.2.10,MacIntel,60,,,,,,,,,,,,,,,,,,,,,,,,,a,0.7236,0,3,0,0,15,15,15,1,N2-7546_Rec.png,1,N2-7546Real.png,1,,,,,,,,,,,,,,,,
,,,,,,,,,,,,,,,,232,1,2023-10-26_18h06.36.011,Online_SceneSrcMD_R,2020.2.10,MacIntel,60,,,,,,,,,,,,,,,,,,,,,,,,,l,0.8071,1,3,1,,,,,,,,,,l,1.7255,1,3,0,0,0,0,1,,,,,,,
,,,,,,,,,,,,,,,,232,1,2023-10-26_18h06.36.011,Online_SceneSrcMD_R,2020.2.10,MacIntel,60,,,,,,,,,,,,,,,,,,,,,,,,,,,,,,0,16,16,16,1,E2-3500_Rec.png,1,E2-3500_SrcRec.png,0,,,,,,,,,,,,,,,,
,,,,,,,,,,,,,,,,232,1,2023-10-26_18h06.36.011,Online_SceneSrcMD_R,2020.2.10,MacIntel,60,,,,,,,,,,,,,,,,,,,,,,,,,l,0.9729,1,3,1,,,,,,,,,,l,0.8542,1,3,0,0,0,0,1,,,,,,,
,,,,,,,,,,,,,,,,232,1,2023-10-26_18h06.36.011,Online_SceneSrcMD_R,2020.2.10,MacIntel,60,,,,,,,,,,,,,,,,,,,,,,,,,,,,,,0,17,17,17,1,N2-2518_Rec.png,1,N2-2518_SrcRec.png,0,,,,,,,,,,,,,,,,
,,,,,,,,,,,,,,,,232,1,2023-10-26_18h06.36.011,Online_SceneSrcMD_R,2020.2.10,MacIntel,60,,,,,,,,,,,,,,,,,,,,,,,,,a,1.0728,0,3,0,0,18,18,18,1,E2-9622_Rec.png,1,E2-9622Real.png,1,,,,,,,,,,,,,,,,
,,,,,,,,,,,,,,,,232,1,2023-10-26_18h06.36.011,Online_SceneSrcMD_R,2020.2.10,MacIntel,60,,,,,,,,,,,,,,,,,,,,,,,,,l,1.3205,1,3,1,,,,,,,,,,j,1.0678,1,1,0,0,0,0,1,,,,,,,
,,,,,,,,,,,,,,,,232,1,2023-10-26_18h06.36.011,Online_SceneSrcMD_R,2020.2.10,MacIntel,60,,,,,,,,,,,,,,,,,,,,,,,,,,,,,,0,19,19,19,1,E2-9040_Rec.png,1,E2-9040_SrcRec.png,0,,,,,,,,,,,,,,,,
,,,,,,,,,,,,,,,,232,1,2023-10-26_18h06.36.011,Online_SceneSrcMD_R,2020.2.10,MacIntel,60,,,,,,,,,,,,,,,,,,,,,,,,,,,,,,,,,,,,,,,,,,,,,,,,0,2,2,2,1,BlockNine.csv,Src_BlockThree.csv
,,,,,,,,,,,,,,,,232,1,2023-10-26_18h06.36.011,Online_SceneSrcMD_R,2020.2.10,MacIntel,60,,,,,,,,,,,,,,,,,,,,,,,,,a,1.0206,0,3,0,0,0,0,0,1,E2-9230_Rec.png,1,E2-9230Real.png,1,,,,,,,,,,,,,,,,
,,,,,,,,,,,,,,,,232,1,2023-10-26_18h06.36.011,Online_SceneSrcMD_R,2020.2.10,MacIntel,60,,,,,,,,,,,,,,,,,,,,,,,,,l,0.6841,1,3,1,,,,,,,,,,l,0.294,1,3,0,0,0,0,1,,,,,,,
,,,,,,,,,,,,,,,,232,1,2023-10-26_18h06.36.011,Online_SceneSrcMD_R,2020.2.10,MacIntel,60,,,,,,,,,,,,,,,,,,,,,,,,,,,,,,0,1,1,1,1,E2-3170_Rec.png,1,E2-3170_SrcRec.png,0,,,,,,,,,,,,,,,,
,,,,,,,,,,,,,,,,232,1,2023-10-26_18h06.36.011,Online_SceneSrcMD_R,2020.2.10,MacIntel,60,,,,,,,,,,,,,,,,,,,,,,,,,a,0.8828,0,3,0,0,2,2,2,1,N1-2870_Rec.png,0,N1-2870Real.png,1,,,,,,,,,,,,,,,,
,,,,,,,,,,,,,,,,232,1,2023-10-26_18h06.36.011,Online_SceneSrcMD_R,2020.2.10,MacIntel,60,,,,,,,,,,,,,,,,,,,,,,,,,a,0.8412,0,3,0,0,3,3,3,1,N2-1661_Rec.png,1,N2-1661_SrcRec.png,0,,,,,,,,,,,,,,,,
,,,,,,,,,,,,,,,,232,1,2023-10-26_18h06.36.011,Online_SceneSrcMD_R,2020.2.10,MacIntel,60,,,,,,,,,,,,,,,,,,,,,,,,,j,1.7404,1,1,1,,,,,,,,,,j,0.8293,1,1,0,0,0,0,1,,,,,,,
,,,,,,,,,,,,,,,,232,1,2023-10-26_18h06.36.011,Online_SceneSrcMD_R,2020.2.10,MacIntel,60,,,,,,,,,,,,,,,,,,,,,,,,,,,,,,0,4,4,4,1,E1-3061_Rec.png,0,E1-3061Real.png,1,,,,,,,,,,,,,,,,
,,,,,,,,,,,,,,,,232,1,2023-10-26_18h06.36.011,Online_SceneSrcMD_R,2020.2.10,MacIntel,60,,,,,,,,,,,,,,,,,,,,,,,,,a,0.5683,0,3,0,0,5,5,5,1,N1-2393_Rec.png,0,N1-2393Real.png,1,,,,,,,,,,,,,,,,
,,,,,,,,,,,,,,,,232,1,2023-10-26_18h06.36.011,Online_SceneSrcMD_R,2020.2.10,MacIntel,60,,,,,,,,,,,,,,,,,,,,,,,,,l,0.8159,1,3,1,,,,,,,,,,l,0.4973,1,3,0,0,0,0,1,,,,,,,
,,,,,,,,,,,,,,,,232,1,2023-10-26_18h06.36.011,Online_SceneSrcMD_R,2020.2.10,MacIntel,60,,,,,,,,,,,,,,,,,,,,,,,,,,,,,,0,6,6,6,1,N2-2616_Rec.png,1,N2-2616_SrcRec.png,0,,,,,,,,,,,,,,,,
,,,,,,,,,,,,,,,,232,1,2023-10-26_18h06.36.011,Online_SceneSrcMD_R,2020.2.10,MacIntel,60,,,,,,,,,,,,,,,,,,,,,,,,,l,1.1328,1,3,1,,,,,,,,,,l,0.8914,1,3,0,0,0,0,1,,,,,,,
,,,,,,,,,,,,,,,,232,1,2023-10-26_18h06.36.011,Online_SceneSrcMD_R,2020.2.10,MacIntel,60,,,,,,,,,,,,,,,,,,,,,,,,,,,,,,0,7,7,7,1,E2-8230_Rec.png,1,E2-8230_SrcRec.png,0,,,,,,,,,,,,,,,,
,,,,,,,,,,,,,,,,232,1,2023-10-26_18h06.36.011,Online_SceneSrcMD_R,2020.2.10,MacIntel,60,,,,,,,,,,,,,,,,,,,,,,,,,a,1.0949,0,3,0,0,8,8,8,1,E1-1525_Rec.png,0,E1-1525Real.png,1,,,,,,,,,,,,,,,,
,,,,,,,,,,,,,,,,232,1,2023-10-26_18h06.36.011,Online_SceneSrcMD_R,2020.2.10,MacIntel,60,,,,,,,,,,,,,,,,,,,,,,,,,s,1.1858,0,2,0,0,9,9,9,1,N1-8311_Rec.png,0,N1-8311Real.png,1,,,,,,,,,,,,,,,,
,,,,,,,,,,,,,,,,232,1,2023-10-26_18h06.36.011,Online_SceneSrcMD_R,2020.2.10,MacIntel,60,,,,,,,,,,,,,,,,,,,,,,,,,l,1.8878,1,3,1,,,,,,,,,,j,0.9697,1,1,0,0,0,0,1,,,,,,,
,,,,,,,,,,,,,,,,232,1,2023-10-26_18h06.36.011,Online_SceneSrcMD_R,2020.2.10,MacIntel,60,,,,,,,,,,,,,,,,,,,,,,,,,,,,,,0,10,10,10,1,N2-2235_Rec.png,1,N2-2235_SrcRec.png,0,,,,,,,,,,,,,,,,
,,,,,,,,,,,,,,,,232,1,2023-10-26_18h06.36.011,Online_SceneSrcMD_R,2020.2.10,MacIntel,60,,,,,,,,,,,,,,,,,,,,,,,,,l,3.4768,1,3,1,,,,,,,,,,a,0.4532,0,3,0,0,0,0,1,,,,,,,
,,,,,,,,,,,,,,,,232,1,2023-10-26_18h06.36.011,Online_SceneSrcMD_R,2020.2.10,MacIntel,60,,,,,,,,,,,,,,,,,,,,,,,,,,,,,,0,11,11,11,1,E2-3230_Rec.png,1,E2-3230_SrcRec.png,0,,,,,,,,,,,,,,,,
,,,,,,,,,,,,,,,,232,1,2023-10-26_18h06.36.011,Online_SceneSrcMD_R,2020.2.10,MacIntel,60,,,,,,,,,,,,,,,,,,,,,,,,,l,1.1165,1,3,1,,,,,,,,,,l,0.4152,1,3,0,0,0,0,1,,,,,,,
,,,,,,,,,,,,,,,,232,1,2023-10-26_18h06.36.011,Online_SceneSrcMD_R,2020.2.10,MacIntel,60,,,,,,,,,,,,,,,,,,,,,,,,,,,,,,0,12,12,12,1,N2-2594_Rec.png,1,N2-2594Real.png,1,,,,,,,,,,,,,,,,
,,,,,,,,,,,,,,,,232,1,2023-10-26_18h06.36.011,Online_SceneSrcMD_R,2020.2.10,MacIntel,60,,,,,,,,,,,,,,,,,,,,,,,,,l,0.9331,1,3,1,,,,,,,,,,j,0.4401,1,1,0,0,0,0,1,,,,,,,
,,,,,,,,,,,,,,,,232,1,2023-10-26_18h06.36.011,Online_SceneSrcMD_R,2020.2.10,MacIntel,60,,,,,,,,,,,,,,,,,,,,,,,,,,,,,,0,13,13,13,1,N2-2512_Rec.png,1,N2-2512_SrcRec.png,0,,,,,,,,,,,,,,,,
,,,,,,,,,,,,,,,,232,1,2023-10-26_18h06.36.011,Online_SceneSrcMD_R,2020.2.10,MacIntel,60,,,,,,,,,,,,,,,,,,,,,,,,,l,0.725,1,3,1,,,,,,,,,,j,0.3099,1,1,0,0,0,0,1,,,,,,,
,,,,,,,,,,,,,,,,232,1,2023-10-26_18h06.36.011,Online_SceneSrcMD_R,2020.2.10,MacIntel,60,,,,,,,,,,,,,,,,,,,,,,,,,,,,,,0,14,14,14,1,E1-3168_Rec.png,0,E1-3168Real.png,1,,,,,,,,,,,,,,,,
,,,,,,,,,,,,,,,,232,1,2023-10-26_18h06.36.011,Online_SceneSrcMD_R,2020.2.10,MacIntel,60,,,,,,,,,,,,,,,,,,,,,,,,,l,1.0466,1,3,1,,,,,,,,,,a,0.2998,0,3,0,0,0,0,1,,,,,,,
,,,,,,,,,,,,,,,,232,1,2023-10-26_18h06.36.011,Online_SceneSrcMD_R,2020.2.10,MacIntel,60,,,,,,,,,,,,,,,,,,,,,,,,,,,,,,0,15,15,15,1,E1-2053_Rec.png,0,E1-2053_SrcRec.png,0,,,,,,,,,,,,,,,,
,,,,,,,,,,,,,,,,232,1,2023-10-26_18h06.36.011,Online_SceneSrcMD_R,2020.2.10,MacIntel,60,,,,,,,,,,,,,,,,,,,,,,,,,a,0.8763,0,3,0,0,16,16,16,1,N1-2605_Rec.png,0,N1-2605Real.png,1,,,,,,,,,,,,,,,,
,,,,,,,,,,,,,,,,232,1,2023-10-26_18h06.36.011,Online_SceneSrcMD_R,2020.2.10,MacIntel,60,,,,,,,,,,,,,,,,,,,,,,,,,l,1.037,1,3,1,,,,,,,,,,l,0.3217,1,3,0,0,0,0,1,,,,,,,
,,,,,,,,,,,,,,,,232,1,2023-10-26_18h06.36.011,Online_SceneSrcMD_R,2020.2.10,MacIntel,60,,,,,,,,,,,,,,,,,,,,,,,,,,,,,,0,17,17,17,1,E2-2716_Rec.png,1,E2-2716Real.png,1,,,,,,,,,,,,,,,,
,,,,,,,,,,,,,,,,232,1,2023-10-26_18h06.36.011,Online_SceneSrcMD_R,2020.2.10,MacIntel,60,,,,,,,,,,,,,,,,,,,,,,,,,a,0.8002,0,3,0,0,18,18,18,1,N1-5455_Rec.png,0,N1-5455_SrcRec.png,0,,,,,,,,,,,,,,,,
,,,,,,,,,,,,,,,,232,1,2023-10-26_18h06.36.011,Online_SceneSrcMD_R,2020.2.10,MacIntel,60,,,,,,,,,,,,,,,,,,,,,,,,,a,1.1836,0,3,0,0,19,19,19,1,E1-3068_Rec.png,0,E1-3068_SrcRec.png,0,,,,,,,,,,,,,,,,
,,,,,,,,,,,,,,,,232,1,2023-10-26_18h06.36.011,Online_SceneSrcMD_R,2020.2.10,MacIntel,60,,,,,,,,,,,,,,,,,,,,,,,,,,,,,,,,,,,,,,,,,,,,,,,,0,3,3,3,1,BlockTen.csv,Src_BlockFour.csv
,,,,,,,,,,,,,,,,232,1,2023-10-26_18h06.36.011,Online_SceneSrcMD_R,2020.2.10,MacIntel,60,,,,,,,,,,,,,,,,,,,,,,,,,a,0.6347,0,3,0,0,0,0,0,1,N2-2606_Rec.png,1,N2-2606Real.png,1,,,,,,,,,,,,,,,,
,,,,,,,,,,,,,,,,232,1,2023-10-26_18h06.36.011,Online_SceneSrcMD_R,2020.2.10,MacIntel,60,,,,,,,,,,,,,,,,,,,,,,,,,l,0.989,1,3,1,,,,,,,,,,j,0.4205,1,1,0,0,0,0,1,,,,,,,
,,,,,,,,,,,,,,,,232,1,2023-10-26_18h06.36.011,Online_SceneSrcMD_R,2020.2.10,MacIntel,60,,,,,,,,,,,,,,,,,,,,,,,,,,,,,,0,1,1,1,1,E2-9410_Rec.png,1,E2-9410Real.png,1,,,,,,,,,,,,,,,,
,,,,,,,,,,,,,,,,232,1,2023-10-26_18h06.36.011,Online_SceneSrcMD_R,2020.2.10,MacIntel,60,,,,,,,,,,,,,,,,,,,,,,,,,d,1.5682,0,1,0,0,2,2,2,1,N1-9070_Rec.png,0,N1-9070_SrcRec.png,0,,,,,,,,,,,,,,,,
,,,,,,,,,,,,,,,,232,1,2023-10-26_18h06.36.011,Online_SceneSrcMD_R,2020.2.10,MacIntel,60,,,,,,,,,,,,,,,,,,,,,,,,,d,0.8698,0,1,0,0,3,3,3,1,E2-9340_Rec.png,1,E2-9340_SrcRec.png,0,,,,,,,,,,,,,,,,
,,,,,,,,,,,,,,,,232,1,2023-10-26_18h06.36.011,Online_SceneSrcMD_R,2020.2.10,MacIntel,60,,,,,,,,,,,,,,,,,,,,,,,,,l,1.436,1,3,1,,,,,,,,,,j,0.4015,1,1,0,0,0,0,1,,,,,,,
,,,,,,,,,,,,,,,,232,1,2023-10-26_18h06.36.011,Online_SceneSrcMD_R,2020.2.10,MacIntel,60,,,,,,,,,,,,,,,,,,,,,,,,,,,,,,0,4,4,4,1,N2-7560_Rec.png,1,N2-7560Real.png,1,,,,,,,,,,,,,,,,
,,,,,,,,,,,,,,,,232,1,2023-10-26_18h06.36.011,Online_SceneSrcMD_R,2020.2.10,MacIntel,60,,,,,,,,,,,,,,,,,,,,,,,,,l,1.1838,1,3,1,,,,,,,,,,l,0.435,1,3,0,0,0,0,1,,,,,,,
,,,,,,,,,,,,,,,,232,1,2023-10-26_18h06.36.011,Online_SceneSrcMD_R,2020.2.10,MacIntel,60,,,,,,,,,,,,,,,,,,,,,,,,,,,,,,0,5,5,5,1,E2-2900_1_Rec.png,1,E2-2900_1Real.png,1,,,,,,,,,,,,,,,,
,,,,,,,,,,,,,,,,232,1,2023-10-26_18h06.36.011,Online_SceneSrcMD_R,2020.2.10,MacIntel,60,,,,,,,,,,,,,,,,,,,,,,,,,a,0.7912,0,3,0,0,6,6,6,1,N2-7550_Rec.png,1,N2-7550_SrcRec.png,0,,,,,,,,,,,,,,,,
,,,,,,,,,,,,,,,,232,1,2023-10-26_18h06.36.011,Online_SceneSrcMD_R,2020.2.10,MacIntel,60,,,,,,,,,,,,,,,,,,,,,,,,,a,0.9177,0,3,0,0,7,7,7,1,N1-5390_Rec.png,0,N1-5390Real.png,1,,,,,,,,,,,,,,,,
,,,,,,,,,,,,,,,,232,1,2023-10-26_18h06.36.011,Online_SceneSrcMD_R,2020.2.10,MacIntel,60,,,,,,,,,,,,,,,,,,,,,,,,,j,2.1842,1,1,1,,,,,,,,,,d,1.7204,0,1,0,0,0,0,1,,,,,,,
,,,,,,,,,,,,,,,,232,1,2023-10-26_18h06.36.011,Online_SceneSrcMD_R,2020.2.10,MacIntel,60,,,,,,,,,,,,,,,,,,,,,,,,,,,,,,0,8,8,8,1,E1-3150_Rec.png,0,E1-3150_SrcRec.png,0,,,,,,,,,,,,,,,,
,,,,,,,,,,,,,,,,232,1,2023-10-26_18h06.36.011,Online_SceneSrcMD_R,2020.2.10,MacIntel,60,,,,,,,,,,,,,,,,,,,,,,,,,l,0.7986,1,3,1,,,,,,,,,,l,0.2351,1,3,0,0,0,0,1,,,,,,,
,,,,,,,,,,,,,,,,232,1,2023-10-26_18h06.36.011,Online_SceneSrcMD_R,2020.2.10,MacIntel,60,,,,,,,,,,,,,,,,,,,,,,,,,,,,,,0,9,9,9,1,E2-9582_Rec.png,1,E2-9582Real.png,1,,,,,,,,,,,,,,,,
,,,,,,,,,,,,,,,,232,1,2023-10-26_18h06.36.011,Online_SceneSrcMD_R,2020.2.10,MacIntel,60,,,,,,,,,,,,,,,,,,,,,,,,,l,1.2628,1,3,1,,,,,,,,,,l,1.3837,1,3,0,0,0,0,1,,,,,,,
,,,,,,,,,,,,,,,,232,1,2023-10-26_18h06.36.011,Online_SceneSrcMD_R,2020.2.10,MacIntel,60,,,,,,,,,,,,,,,,,,,,,,,,,,,,,,0,10,10,10,1,E2-9420_Rec.png,1,E2-9420_SrcRec.png,0,,,,,,,,,,,,,,,,
,,,,,,,,,,,,,,,,232,1,2023-10-26_18h06.36.011,Online_SceneSrcMD_R,2020.2.10,MacIntel,60,,,,,,,,,,,,,,,,,,,,,,,,,a,0.8706,0,3,0,0,11,11,11,1,N1-2485_Rec.png,0,N1-2485_SrcRec.png,0,,,,,,,,,,,,,,,,
,,,,,,,,,,,,,,,,232,1,2023-10-26_18h06.36.011,Online_SceneSrcMD_R,2020.2.10,MacIntel,60,,,,,,,,,,,,,,,,,,,,,,,,,a,0.4747,0,3,0,0,12,12,12,1,N2-7491_Rec.png,1,N2-7491Real.png,1,,,,,,,,,,,,,,,,
,,,,,,,,,,,,,,,,232,1,2023-10-26_18h06.36.011,Online_SceneSrcMD_R,2020.2.10,MacIntel,60,,,,,,,,,,,,,,,,,,,,,,,,,k,1.3554,1,2,1,,,,,,,,,,k,0.274,1,2,0,0,0,0,1,,,,,,,
,,,,,,,,,,,,,,,,232,1,2023-10-26_18h06.36.011,Online_SceneSrcMD_R,2020.2.10,MacIntel,60,,,,,,,,,,,,,,,,,,,,,,,,,,,,,,0,13,13,13,1,E1-2691_Rec.png,0,E1-2691Real.png,1,,,,,,,,,,,,,,,,
,,,,,,,,,,,,,,,,232,1,2023-10-26_18h06.36.011,Online_SceneSrcMD_R,2020.2.10,MacIntel,60,,,,,,,,,,,,,,,,,,,,,,,,,s,1.1908,0,2,0,0,14,14,14,1,N1-7640_Rec.png,0,N1-7640_SrcRec.png,0,,,,,,,,,,,,,,,,
,,,,,,,,,,,,,,,,232,1,2023-10-26_18h06.36.011,Online_SceneSrcMD_R,2020.2.10,MacIntel,60,,,,,,,,,,,,,,,,,,,,,,,,,s,1.532,0,2,0,0,15,15,15,1,E1-9253_Rec.png,0,E1-9253_SrcRec.png,0,,,,,,,,,,,,,,,,
,,,,,,,,,,,,,,,,232,1,2023-10-26_18h06.36.011,Online_SceneSrcMD_R,2020.2.10,MacIntel,60,,,,,,,,,,,,,,,,,,,,,,,,,l,0.9849,1,3,1,,,,,,,,,,l,0.405,1,3,0,0,0,0,1,,,,,,,
,,,,,,,,,,,,,,,,232,1,2023-10-26_18h06.36.011,Online_SceneSrcMD_R,2020.2.10,MacIntel,60,,,,,,,,,,,,,,,,,,,,,,,,,,,,,,0,16,16,16,1,N2-6570_2_Rec.png,1,N2-6570_2Real.png,1,,,,,,,,,,,,,,,,
,,,,,,,,,,,,,,,,232,1,2023-10-26_18h06.36.011,Online_SceneSrcMD_R,2020.2.10,MacIntel,60,,,,,,,,,,,,,,,,,,,,,,,,,d,2.4999,0,1,0,0,17,17,17,1,E1-9250_Rec.png,0,E1-9250Real.png,1,,,,,,,,,,,,,,,,
,,,,,,,,,,,,,,,,232,1,2023-10-26_18h06.36.011,Online_SceneSrcMD_R,2020.2.10,MacIntel,60,,,,,,,,,,,,,,,,,,,,,,,,,d,0.8069,0,1,0,0,18,18,18,1,E1-9600_Rec.png,0,E1-9600_SrcRec.png,0,,,,,,,,,,,,,,,,
,,,,,,,,,,,,,,,,232,1,2023-10-26_18h06.36.011,Online_SceneSrcMD_R,2020.2.10,MacIntel,60,,,,,,,,,,,,,,,,,,,,,,,,,d,1.2707,0,1,0,0,19,19,19,1,N1-1947_Rec.png,0,N1-1947_SrcRec.png,0,,,,,,,,,,,,,,,,
,,,,,,,,,,,,,,,,232,1,2023-10-26_18h06.36.011,Online_SceneSrcMD_R,2020.2.10,MacIntel,60,,,,,,,,,,,,,,,,,,,,,,,,,,,,,,,,,,,,,,,,,,,,,,,,0,4,4,4,1,BlockEleven.csv,Src_BlockFive.csv
,,,,,,,,,,,,,,,,232,1,2023-10-26_18h06.36.011,Online_SceneSrcMD_R,2020.2.10,MacIntel,60,,,,,,,,,,,,,,,,,,,,,,,,,d,1.4217,0,1,0,0,0,0,0,1,E1-9810_Rec.png,0,E1-9810Real.png,1,,,,,,,,,,,,,,,,
,,,,,,,,,,,,,,,,232,1,2023-10-26_18h06.36.011,Online_SceneSrcMD_R,2020.2.10,MacIntel,60,,,,,,,,,,,,,,,,,,,,,,,,,s,1.3209,0,2,0,0,1,1,1,1,N1-2593_Rec.png,0,N1-2593Real.png,1,,,,,,,,,,,,,,,,
,,,,,,,,,,,,,,,,232,1,2023-10-26_18h06.36.011,Online_SceneSrcMD_R,2020.2.10,MacIntel,60,,,,,,,,,,,,,,,,,,,,,,,,,s,0.6215,0,2,0,0,2,2,2,1,E1-9830_Rec.png,0,E1-9830_SrcRec.png,0,,,,,,,,,,,,,,,,
,,,,,,,,,,,,,,,,232,1,2023-10-26_18h06.36.011,Online_SceneSrcMD_R,2020.2.10,MacIntel,60,,,,,,,,,,,,,,,,,,,,,,,,,l,1.4023,1,3,1,,,,,,,,,,d,2.1787,0,1,0,0,0,0,1,,,,,,,
,,,,,,,,,,,,,,,,232,1,2023-10-26_18h06.36.011,Online_SceneSrcMD_R,2020.2.10,MacIntel,60,,,,,,,,,,,,,,,,,,,,,,,,,,,,,,0,3,3,3,1,N2-2200_Rec.png,1,N2-2200_SrcRec.png,0,,,,,,,,,,,,,,,,
,,,,,,,,,,,,,,,,232,1,2023-10-26_18h06.36.011,Online_SceneSrcMD_R,2020.2.10,MacIntel,60,,,,,,,,,,,,,,,,,,,,,,,,,a,1.21,0,3,0,0,4,4,4,1,N1-8041_Rec.png,0,N1-8041Real.png,1,,,,,,,,,,,,,,,,
,,,,,,,,,,,,,,,,232,1,2023-10-26_18h06.36.011,Online_SceneSrcMD_R,2020.2.10,MacIntel,60,,,,,,,,,,,,,,,,,,,,,,,,,a,0.8377,0,3,0,0,5,5,5,1,E1-9180_Rec.png,0,E1-9180Real.png,1,,,,,,,,,,,,,,,,
,,,,,,,,,,,,,,,,232,1,2023-10-26_18h06.36.011,Online_SceneSrcMD_R,2020.2.10,MacIntel,60,,,,,,,,,,,,,,,,,,,,,,,,,l,0.9992,1,3,1,,,,,,,,,,l,0.2059,1,3,0,0,0,0,1,,,,,,,
,,,,,,,,,,,,,,,,232,1,2023-10-26_18h06.36.011,Online_SceneSrcMD_R,2020.2.10,MacIntel,60,,,,,,,,,,,,,,,,,,,,,,,,,,,,,,0,6,6,6,1,N2-2620_Rec.png,1,N2-2620_SrcRec.png,0,,,,,,,,,,,,,,,,
,,,,,,,,,,,,,,,,232,1,2023-10-26_18h06.36.011,Online_SceneSrcMD_R,2020.2.10,MacIntel,60,,,,,,,,,,,,,,,,,,,,,,,,,l,0.6635,1,3,1,,,,,,,,,,l,1.026,1,3,0,0,0,0,1,,,,,,,
,,,,,,,,,,,,,,,,232,1,2023-10-26_18h06.36.011,Online_SceneSrcMD_R,2020.2.10,MacIntel,60,,,,,,,,,,,,,,,,,,,,,,,,,,,,,,0,7,7,7,1,E2-3266_Rec.png,1,E2-3266_SrcRec.png,0,,,,,,,,,,,,,,,,
,,,,,,,,,,,,,,,,232,1,2023-10-26_18h06.36.011,Online_SceneSrcMD_R,2020.2.10,MacIntel,60,,,,,,,,,,,,,,,,,,,,,,,,,a,1.0288,0,3,0,0,8,8,8,1,N2-2270_Rec.png,1,N2-2270Real.png,1,,,,,,,,,,,,,,,,
,,,,,,,,,,,,,,,,232,1,2023-10-26_18h06.36.011,Online_SceneSrcMD_R,2020.2.10,MacIntel,60,,,,,,,,,,,,,,,,,,,,,,,,,a,0.8875,0,3,0,0,9,9,9,1,N1-2240_Rec.png,0,N1-2240_SrcRec.png,0,,,,,,,,,,,,,,,,
,,,,,,,,,,,,,,,,232,1,2023-10-26_18h06.36.011,Online_SceneSrcMD_R,2020.2.10,MacIntel,60,,,,,,,,,,,,,,,,,,,,,,,,,l,1.3763,1,3,1,,,,,,,,,,j,0.2679,1,1,0,0,0,0,1,,,,,,,
,,,,,,,,,,,,,,,,232,1,2023-10-26_18h06.36.011,Online_SceneSrcMD_R,2020.2.10,MacIntel,60,,,,,,,,,,,,,,,,,,,,,,,,,,,,,,0,10,10,10,1,N2-5779_Rec.png,1,N2-5779Real.png,1,,,,,,,,,,,,,,,,
,,,,,,,,,,,,,,,,232,1,2023-10-26_18h06.36.011,Online_SceneSrcMD_R,2020.2.10,MacIntel,60,,,,,,,,,,,,,,,,,,,,,,,,,a,0.8272,0,3,0,0,11,11,11,1,E1-1274_Rec.png,0,E1-1274Real.png,1,,,,,,,,,,,,,,,,
,,,,,,,,,,,,,,,,232,1,2023-10-26_18h06.36.011,Online_SceneSrcMD_R,2020.2.10,MacIntel,60,,,,,,,,,,,,,,,,,,,,,,,,,a,0.7418,0,3,0,0,12,12,12,1,E2-9921_Rec.png,1,E2-9921_SrcRec.png,0,,,,,,,,,,,,,,,,
,,,,,,,,,,,,,,,,232,1,2023-10-26_18h06.36.011,Online_SceneSrcMD_R,2020.2.10,MacIntel,60,,,,,,,,,,,,,,,,,,,,,,,,,a,0.7327,0,3,0,0,13,13,13,1,E1-2717_Rec.png,0,E1-2717Real.png,1,,,,,,,,,,,,,,,,
,,,,,,,,,,,,,,,,232,1,2023-10-26_18h06.36.011,Online_SceneSrcMD_R,2020.2.10,MacIntel,60,,,,,,,,,,,,,,,,,,,,,,,,,d,1.6182,0,1,0,0,14,14,14,1,N1-5994_Rec.png,0,N1-5994_SrcRec.png,0,,,,,,,,,,,,,,,,
,,,,,,,,,,,,,,,,232,1,2023-10-26_18h06.36.011,Online_SceneSrcMD_R,2020.2.10,MacIntel,60,,,,,,,,,,,,,,,,,,,,,,,,,d,0.589,0,1,0,0,15,15,15,1,N1-5410_Rec.png,0,N1-5410Real.png,1,,,,,,,,,,,,,,,,
,,,,,,,,,,,,,,,,232,1,2023-10-26_18h06.36.011,Online_SceneSrcMD_R,2020.2.10,MacIntel,60,,,,,,,,,,,,,,,,,,,,,,,,,l,0.8483,1,3,1,,,,,,,,,,l,1.8031,1,3,0,0,0,0,1,,,,,,,
,,,,,,,,,,,,,,,,232,1,2023-10-26_18h06.36.011,Online_SceneSrcMD_R,2020.2.10,MacIntel,60,,,,,,,,,,,,,,,,,,,,,,,,,,,,,,0,16,16,16,1,E2-2683_Rec.png,1,E2-2683_SrcRec.png,0,,,,,,,,,,,,,,,,
,,,,,,,,,,,,,,,,232,1,2023-10-26_18h06.36.011,Online_SceneSrcMD_R,2020.2.10,MacIntel,60,,,,,,,,,,,,,,,,,,,,,,,,,l,0.816,1,3,1,,,,,,,,,,l,0.2332,1,3,0,0,0,0,1,,,,,,,
,,,,,,,,,,,,,,,,232,1,2023-10-26_18h06.36.011,Online_SceneSrcMD_R,2020.2.10,MacIntel,60,,,,,,,,,,,,,,,,,,,,,,,,,,,,,,0,17,17,17,1,N2-2579_Rec.png,1,N2-2579_SrcRec.png,0,,,,,,,,,,,,,,,,
,,,,,,,,,,,,,,,,232,1,2023-10-26_18h06.36.011,Online_SceneSrcMD_R,2020.2.10,MacIntel,60,,,,,,,,,,,,,,,,,,,,,,,,,l,0.6209,1,3,1,,,,,,,,,,l,0.2548,1,3,0,0,0,0,1,,,,,,,
,,,,,,,,,,,,,,,,232,1,2023-10-26_18h06.36.011,Online_SceneSrcMD_R,2020.2.10,MacIntel,60,,,,,,,,,,,,,,,,,,,,,,,,,,,,,,0,18,18,18,1,E2-6243_Rec.png,1,E2-6243Real.png,1,,,,,,,,,,,,,,,,
,,,,,,,,,,,,,,,,232,1,2023-10-26_18h06.36.011,Online_SceneSrcMD_R,2020.2.10,MacIntel,60,,,,,,,,,,,,,,,,,,,,,,,,,l,0.7159,1,3,1,,,,,,,,,,j,0.2524,1,1,0,0,0,0,1,,,,,,,
,,,,,,,,,,,,,,,,232,1,2023-10-26_18h06.36.011,Online_SceneSrcMD_R,2020.2.10,MacIntel,60,,,,,,,,,,,,,,,,,,,,,,,,,,,,,,0,19,19,19,1,E2-9424_Rec.png,1,E2-9424_SrcRec.png,0,,,,,,,,,,,,,,,,
,,,,,,,,,,,,,,,,232,1,2023-10-26_18h06.36.011,Online_SceneSrcMD_R,2020.2.10,MacIntel,60,,,,,,,,,,,,,,,,,,,,,,,,,,,,,,,,,,,,,,,,,,,,,,,,0,5,5,5,1,BlockTwelve.csv,Src_BlockSix.csv
