Instructions_Loop.thisRepN,Instructions_Loop.thisTrialN,Instructions_Loop.thisN,Instructions_Loop.thisIndex,Instructions_Loop.ran,Top,Top_Bottom,TBMT_int,Middle_Top,Middle,Middle_Bottom,Bottom_Top,Bottom_Middle,Bottom,Photo,Mid_Photo,participant,session,date,expName,psychopyVersion,OS,frameRate,Redo_Instructions_Resp.keys,Redo_Instructions_Resp.rt,Practice_Responding.keys,Practice_Responding.corr,Practice_Responding.rt,Repeat_Loop.thisRepN,Repeat_Loop.thisTrialN,Repeat_Loop.thisN,Repeat_Loop.thisIndex,Repeat_Loop.ran,Practice_Loop.thisRepN,Practice_Loop.thisTrialN,Practice_Loop.thisN,Practice_Loop.thisIndex,Practice_Loop.ran,Prac_Scene,Scale,Prac_Ans,PracticeText,Encoding_Resp.keys,Encoding_Resp.rt,Item_Mem_Response,Item_Conf_Response,Src_LoopRun,Blocks.thisRepN,Blocks.thisTrialN,Blocks.thisN,Blocks.thisIndex,Blocks.ran,Rec_Scene,RecAns,Src_Scene,SrcAns,Src_Resp.keys,Src_Resp.rt,Source_Mem_Response,Source_Conf_Response,Src_Blocks.thisRepN,Src_Blocks.thisTrialN,Src_Blocks.thisN,Src_Blocks.thisIndex,Src_Blocks.ran,Group_Order.thisRepN,Group_Order.thisTrialN,Group_Order.thisN,Group_Order.thisIndex,Group_Order.ran,blockFile,Src_blockFile
0,0,0,0,1,NaN,NaN,NaN,NaN,welcome,NaN,NaN,NaN,press SPACE to continue,Empty.png,Empty.png,262,1,2023-12-13_13h29.40.856,Online_SceneSrcMD_R,2020.2.10,MacIntel,60,,,,,,,,,,,,,,,,,,,,,,,,,,,,,,,,,,,,,,,,,,,,,,,,,
0,1,1,1,1,in this experiment you will complete a memory test for the images and colored frames that were presented yesterday.,NaN,NaN,the memory test will include previously seen AND new images.,NaN,NaN,NaN,NaN,press SPACE to continue,Empty.png,Empty.png,262,1,2023-12-13_13h29.40.856,Online_SceneSrcMD_R,2020.2.10,MacIntel,60,,,,,,,,,,,,,,,,,,,,,,,,,,,,,,,,,,,,,,,,,,,,,,,,,
0,2,2,2,1,images will be presented on the screen one at a time.,NaN,NaN,six blocks of images will be presented.,NaN,NaN,NaN,NaN,press SPACE to continue,Empty.png,Empty.png,262,1,2023-12-13_13h29.40.856,Online_SceneSrcMD_R,2020.2.10,MacIntel,60,,,,,,,,,,,,,,,,,,,,,,,,,,,,,,,,,,,,,,,,,,,,,,,,,
0,3,3,3,1,some of the images will portray scenes with emotional content.,NaN,NaN,if you become uncomfortable please remember that you can leave the experiment at any point without penalty.,NaN,NaN,NaN,NaN,press SPACE to continue,Empty.png,Empty.png,262,1,2023-12-13_13h29.40.856,Online_SceneSrcMD_R,2020.2.10,MacIntel,60,,,,,,,,,,,,,,,,,,,,,,,,,,,,,,,,,,,,,,,,,,,,,,,,,
0,4,4,4,1,"you will first report whether you remember previously seeing each image, and your confidence in your response.",when responding refer to the scale below:,NaN,NaN,NaN,use your keyboard to submit your response.,NaN,NaN,press SPACE to continue,Alternative_Scale.png,Empty.png,262,1,2023-12-13_13h29.40.856,Online_SceneSrcMD_R,2020.2.10,MacIntel,60,,,,,,,,,,,,,,,,,,,,,,,,,,,,,,,,,,,,,,,,,,,,,,,,,
0,5,5,5,1,"if you DO NOT remember seeing the image previously, use your left hand to respond using either the 'A', 'S', or 'D' keys.",NaN,NaN,NaN,NaN,'A' is Very Confident No (3),'D' is Not Confident No (1),'S' is Somewhat Confident No (2),press SPACE to continue,Alternative_Scale.png,Empty.png,262,1,2023-12-13_13h29.40.856,Online_SceneSrcMD_R,2020.2.10,MacIntel,60,,,,,,,,,,,,,,,,,,,,,,,,,,,,,,,,,,,,,,,,,,,,,,,,,
0,6,6,6,1,"if you DO remember seeing the image previously, use your right hand to respond using either the 'J', 'K', or 'L' keys.",NaN,NaN,NaN,NaN,'J' is Not Confident Yes (1),'L' is Very Confident Yes (3),'K' is Somewhat Confident Yes (2),press SPACE to continue,Alternative_Scale.png,Empty.png,262,1,2023-12-13_13h29.40.856,Online_SceneSrcMD_R,2020.2.10,MacIntel,60,,,,,,,,,,,,,,,,,,,,,,,,,,,,,,,,,,,,,,,,,,,,,,,,,
0,7,7,7,1,NaN,keep both hands on the keyboard once you begin the memory test.,NaN,NaN,NaN,"we are interested in your first reaction, so respond at your own pace but please report your initial ""gut reaction"".",NaN,NaN,press SPACE to continue,Empty.png,Empty.png,262,1,2023-12-13_13h29.40.856,Online_SceneSrcMD_R,2020.2.10,MacIntel,60,,,,,,,,,,,,,,,,,,,,,,,,,,,,,,,,,,,,,,,,,,,,,,,,,
0,8,8,8,1,NaN,NaN,please use the full range of the scale.,NaN,NaN,NaN,NaN,NaN,press SPACE to continue,Empty.png,Empty.png,262,1,2023-12-13_13h29.40.856,Online_SceneSrcMD_R,2020.2.10,MacIntel,60,,,,,,,,,,,,,,,,,,,,,,,,,,,,,,,,,,,,,,,,,,,,,,,,,
0,9,9,9,1,example of what you will see when reporting your memory for the image:,NaN,NaN,NaN,NaN,If you very confidently remembered this image you would press 'L'.,"If you very confidently did not remember, you would press 'A'.",NaN,press SPACE to continue,Empty.png,TS03scene_Rec.png,262,1,2023-12-13_13h29.40.856,Online_SceneSrcMD_R,2020.2.10,MacIntel,60,,,,,,,,,,,,,,,,,,,,,,,,,,,,,,,,,,,,,,,,,,,,,,,,,
0,10,10,10,1,"for remembered images, your memory and associated confidence will also be tested for the frame color which surrounded the image.",when responding refer to the scale below:,NaN,NaN,NaN,use your keyboard to submit your response.,NaN,NaN,press SPACE to continue,Alternative_Scale.png,Empty.png,262,1,2023-12-13_13h29.40.856,Online_SceneSrcMD_R,2020.2.10,MacIntel,60,,,,,,,,,,,,,,,,,,,,,,,,,,,,,,,,,,,,,,,,,,,,,,,,,
0,11,11,11,1,"if the color of the frame around the image differs from what you remember, use your left hand to respond using either the 'A', 'S', or 'D' keys.",NaN,NaN,NaN,NaN,'A' is Very Confident No (3),'D' is Not Confident No (1),'S' is Somewhat Confident No (2),press SPACE to continue,Alternative_Scale.png,Empty.png,262,1,2023-12-13_13h29.40.856,Online_SceneSrcMD_R,2020.2.10,MacIntel,60,,,,,,,,,,,,,,,,,,,,,,,,,,,,,,,,,,,,,,,,,,,,,,,,,
0,12,12,12,1,"if the color of the frame around the image matches what you remember, use your right hand to respond using either the 'J', 'K', or 'L' keys.",NaN,NaN,NaN,NaN,'J' is Not Confident Yes (1),'L' is Very Confident Yes (3),'K' is Somewhat Confident Yes (2),press SPACE to continue,Alternative_Scale.png,Empty.png,262,1,2023-12-13_13h29.40.856,Online_SceneSrcMD_R,2020.2.10,MacIntel,60,,,,,,,,,,,,,,,,,,,,,,,,,,,,,,,,,,,,,,,,,,,,,,,,,
0,13,13,13,1,example of what you will see when reporting your memory for the frame color:,NaN,NaN,NaN,NaN,If you very confidently remembered a yellow frame around the image you would press 'L'.,"If you very confidently remembered another color around the frame, you would press 'A'.",NaN,press SPACE to continue,Empty.png,TS03scene_SrcRec.png,262,1,2023-12-13_13h29.40.856,Online_SceneSrcMD_R,2020.2.10,MacIntel,60,,,,,,,,,,,,,,,,,,,,,,,,,,,,,,,,,,,,,,,,,,,,,,,,,
0,14,14,14,1,NaN,NaN,NaN,this is the end of the instructions,NaN,NaN,NaN,NaN,press SPACE to continue,Empty.png,Empty.png,262,1,2023-12-13_13h29.40.856,Online_SceneSrcMD_R,2020.2.10,MacIntel,60,,,,,,,,,,,,,,,,,,,,,,,,,,,,,,,,,,,,,,,,,,,,,,,,,
,,,,,,,,,,,,,,,,262,1,2023-12-13_13h29.40.856,Online_SceneSrcMD_R,2020.2.10,MacIntel,60,p,3.982700001,p,1,10.9361,0,0,0,0,1,,,,,,,,,,,,,,,,,,,,,,,,,,,,,,,,,,,,,,,
,,,,,,,,,,,,,,,,262,1,2023-12-13_13h29.40.856,Online_SceneSrcMD_R,2020.2.10,MacIntel,60,,,,,,,,,,,0,0,0,0,1,Empty.png,Alternative_Scale.png,p,after memorizing the scale below press 'P' to proceed.,,,,,,,,,,,,,,,,,,,,,,,,,,,,,,
,,,,,,,,,,,,,,,,262,1,2023-12-13_13h29.40.856,Online_SceneSrcMD_R,2020.2.10,MacIntel,60,,,l,1,12.2333,0,0,0,0,1,,,,,,,,,,,,,,,,,,,,,,,,,,,,,,,,,,,,,,,
,,,,,,,,,,,,,,,,262,1,2023-12-13_13h29.40.856,Online_SceneSrcMD_R,2020.2.10,MacIntel,60,,,,,,,,,,,0,1,1,1,1,TS01scene_Rec.png,Empty.png,l,what would you respond if you were very confident you remembered seeing this image?,,,,,,,,,,,,,,,,,,,,,,,,,,,,,,
,,,,,,,,,,,,,,,,262,1,2023-12-13_13h29.40.856,Online_SceneSrcMD_R,2020.2.10,MacIntel,60,,,a,1,26.386,0,0,0,0,1,,,,,,,,,,,,,,,,,,,,,,,,,,,,,,,,,,,,,,,
,,,,,,,,,,,,,,,,262,1,2023-12-13_13h29.40.856,Online_SceneSrcMD_R,2020.2.10,MacIntel,60,,,,,,,,,,,0,2,2,2,1,TS01scene_SrcRec.png,Empty.png,a,respond as if you very confidently remembered another border color around this photo.,,,,,,,,,,,,,,,,,,,,,,,,,,,,,,
,,,,,,,,,,,,,,,,262,1,2023-12-13_13h29.40.856,Online_SceneSrcMD_R,2020.2.10,MacIntel,60,,,a,1,7.07,0,0,0,0,1,,,,,,,,,,,,,,,,,,,,,,,,,,,,,,,,,,,,,,,
,,,,,,,,,,,,,,,,262,1,2023-12-13_13h29.40.856,Online_SceneSrcMD_R,2020.2.10,MacIntel,60,,,,,,,,,,,0,3,3,3,1,TS05scene_Rec.png,Empty.png,a,what would you respond if you were very confident you did not remember seeing this image?,,,,,,,,,,,,,,,,,,,,,,,,,,,,,,
,,,,,,,,,,,,,,,,262,1,2023-12-13_13h29.40.856,Online_SceneSrcMD_R,2020.2.10,MacIntel,60,,,j,1,27.9939,0,0,0,0,1,,,,,,,,,,,,,,,,,,,,,,,,,,,,,,,,,,,,,,,
,,,,,,,,,,,,,,,,262,1,2023-12-13_13h29.40.856,Online_SceneSrcMD_R,2020.2.10,MacIntel,60,,,,,,,,,,,0,4,4,4,1,TS04scene_Rec.png,Empty.png,j,what would you respond if you were not confident you remembered seeing this image?,,,,,,,,,,,,,,,,,,,,,,,,,,,,,,
,,,,,,,,,,,,,,,,262,1,2023-12-13_13h29.40.856,Online_SceneSrcMD_R,2020.2.10,MacIntel,60,,,a,1,7.365200001,0,0,0,0,1,,,,,,,,,,,,,,,,,,,,,,,,,,,,,,,,,,,,,,,
,,,,,,,,,,,,,,,,262,1,2023-12-13_13h29.40.856,Online_SceneSrcMD_R,2020.2.10,MacIntel,60,,,,,,,,,,,0,5,5,5,1,TS04scene_SrcRec.png,Empty.png,a,respond as if you very confidently remembered another border color around this photo.,,,,,,,,,,,,,,,,,,,,,,,,,,,,,,
,,,,,,,,,,,,,,,,262,1,2023-12-13_13h29.40.856,Online_SceneSrcMD_R,2020.2.10,MacIntel,60,,,s,1,9.080200001,0,0,0,0,1,,,,,,,,,,,,,,,,,,,,,,,,,,,,,,,,,,,,,,,
,,,,,,,,,,,,,,,,262,1,2023-12-13_13h29.40.856,Online_SceneSrcMD_R,2020.2.10,MacIntel,60,,,,,,,,,,,0,6,6,6,1,TS08scene_Rec.png,Empty.png,s,what would you respond if you were somewhat confident you did not remember seeing this image?,,,,,,,,,,,,,,,,,,,,,,,,,,,,,,
,,,,,,,,,,,,,,,,262,1,2023-12-13_13h29.40.856,Online_SceneSrcMD_R,2020.2.10,MacIntel,60,,,k,1,4.450199999,0,0,0,0,1,,,,,,,,,,,,,,,,,,,,,,,,,,,,,,,,,,,,,,,
,,,,,,,,,,,,,,,,262,1,2023-12-13_13h29.40.856,Online_SceneSrcMD_R,2020.2.10,MacIntel,60,,,,,,,,,,,0,7,7,7,1,TS02scene_Rec.png,Empty.png,k,what would you respond if you were somewhat confident you remembered seeing this image?,,,,,,,,,,,,,,,,,,,,,,,,,,,,,,
,,,,,,,,,,,,,,,,262,1,2023-12-13_13h29.40.856,Online_SceneSrcMD_R,2020.2.10,MacIntel,60,,,s,1,4.2729,0,0,0,0,1,,,,,,,,,,,,,,,,,,,,,,,,,,,,,,,,,,,,,,,
,,,,,,,,,,,,,,,,262,1,2023-12-13_13h29.40.856,Online_SceneSrcMD_R,2020.2.10,MacIntel,60,,,,,,,,,,,0,8,8,8,1,TS02scene_SrcRec.png,Empty.png,s,respond as if you somewhat confidently remembered another border color around this photo.,,,,,,,,,,,,,,,,,,,,,,,,,,,,,,
,,,,,,,,,,,,,,,,262,1,2023-12-13_13h29.40.856,Online_SceneSrcMD_R,2020.2.10,MacIntel,60,,,d,1,6.3485,0,0,0,0,1,,,,,,,,,,,,,,,,,,,,,,,,,,,,,,,,,,,,,,,
,,,,,,,,,,,,,,,,262,1,2023-12-13_13h29.40.856,Online_SceneSrcMD_R,2020.2.10,MacIntel,60,,,,,,,,,,,0,9,9,9,1,TS07scene_Rec.png,Empty.png,d,what would you respond if you were not confident you did not remember seeing this image?,,,,,,,,,,,,,,,,,,,,,,,,,,,,,,
,,,,,,,,,,,,,,,,262,1,2023-12-13_13h29.40.856,Online_SceneSrcMD_R,2020.2.10,MacIntel,60,,,k,1,5.469200001,0,0,0,0,1,,,,,,,,,,,,,,,,,,,,,,,,,,,,,,,,,,,,,,,
,,,,,,,,,,,,,,,,262,1,2023-12-13_13h29.40.856,Online_SceneSrcMD_R,2020.2.10,MacIntel,60,,,,,,,,,,,0,10,10,10,1,TS03scene_SrcRec.png,Empty.png,k,respond as if you somewhat confidently remembered a yellow border around this photo.,,,,,,,,,,,,,,,,,,,,,,,,,,,,,,
,,,,,,,,,,,,,,,,262,1,2023-12-13_13h29.40.856,Online_SceneSrcMD_R,2020.2.10,MacIntel,60,,,,,,,,,,,,,,,,,,,,s,7.94,0,2,0,0,0,0,0,1,N2-8280_Rec.png,1,N2-8280Real.png,1,,,,,,,,,,,,,,,,
,,,,,,,,,,,,,,,,262,1,2023-12-13_13h29.40.856,Online_SceneSrcMD_R,2020.2.10,MacIntel,60,,,,,,,,,,,,,,,,,,,,l,2.898200001,1,3,1,,,,,,,,,,a,3.3455,0,3,0,0,0,0,1,,,,,,,
,,,,,,,,,,,,,,,,262,1,2023-12-13_13h29.40.856,Online_SceneSrcMD_R,2020.2.10,MacIntel,60,,,,,,,,,,,,,,,,,,,,,,,,,0,1,1,1,1,N2-2499_Rec.png,1,N2-2499_SrcRec.png,0,,,,,,,,,,,,,,,,
,,,,,,,,,,,,,,,,262,1,2023-12-13_13h29.40.856,Online_SceneSrcMD_R,2020.2.10,MacIntel,60,,,,,,,,,,,,,,,,,,,,k,6.115800001,1,2,1,,,,,,,,,,j,4.931900002,1,1,0,0,0,0,1,,,,,,,
,,,,,,,,,,,,,,,,262,1,2023-12-13_13h29.40.856,Online_SceneSrcMD_R,2020.2.10,MacIntel,60,,,,,,,,,,,,,,,,,,,,,,,,,0,2,2,2,1,E2-3069_Rec.png,1,E2-3069Real.png,1,,,,,,,,,,,,,,,,
,,,,,,,,,,,,,,,,262,1,2023-12-13_13h29.40.856,Online_SceneSrcMD_R,2020.2.10,MacIntel,60,,,,,,,,,,,,,,,,,,,,a,1.826,0,3,0,0,3,3,3,1,E1-6244_Rec.png,0,E1-6244_SrcRec.png,0,,,,,,,,,,,,,,,,
,,,,,,,,,,,,,,,,262,1,2023-12-13_13h29.40.856,Online_SceneSrcMD_R,2020.2.10,MacIntel,60,,,,,,,,,,,,,,,,,,,,d,8.971,0,1,0,0,4,4,4,1,N1-7495_Rec.png,0,N1-7495Real.png,1,,,,,,,,,,,,,,,,
,,,,,,,,,,,,,,,,262,1,2023-12-13_13h29.40.856,Online_SceneSrcMD_R,2020.2.10,MacIntel,60,,,,,,,,,,,,,,,,,,,,s,4.9041,0,2,0,0,5,5,5,1,E1-6212_Rec.png,0,E1-6212Real.png,1,,,,,,,,,,,,,,,,
,,,,,,,,,,,,,,,,262,1,2023-12-13_13h29.40.856,Online_SceneSrcMD_R,2020.2.10,MacIntel,60,,,,,,,,,,,,,,,,,,,,a,4.4844,0,3,0,0,6,6,6,1,N1-8460_Rec.png,0,N1-8460_SrcRec.png,0,,,,,,,,,,,,,,,,
,,,,,,,,,,,,,,,,262,1,2023-12-13_13h29.40.856,Online_SceneSrcMD_R,2020.2.10,MacIntel,60,,,,,,,,,,,,,,,,,,,,l,2.6175,1,3,1,,,,,,,,,,d,5.9656,0,1,0,0,0,0,1,,,,,,,
,,,,,,,,,,,,,,,,262,1,2023-12-13_13h29.40.856,Online_SceneSrcMD_R,2020.2.10,MacIntel,60,,,,,,,,,,,,,,,,,,,,,,,,,0,7,7,7,1,E2-7380_Rec.png,1,E2-7380_SrcRec.png,0,,,,,,,,,,,,,,,,
,,,,,,,,,,,,,,,,262,1,2023-12-13_13h29.40.856,Online_SceneSrcMD_R,2020.2.10,MacIntel,60,,,,,,,,,,,,,,,,,,,,a,3.949699999,0,3,0,0,8,8,8,1,N1-9210_Rec.png,0,N1-9210Real.png,1,,,,,,,,,,,,,,,,
,,,,,,,,,,,,,,,,262,1,2023-12-13_13h29.40.856,Online_SceneSrcMD_R,2020.2.10,MacIntel,60,,,,,,,,,,,,,,,,,,,,s,4.258699999,0,2,0,0,9,9,9,1,N1-1121_Rec.png,0,N1-1121_SrcRec.png,0,,,,,,,,,,,,,,,,
,,,,,,,,,,,,,,,,262,1,2023-12-13_13h29.40.856,Online_SceneSrcMD_R,2020.2.10,MacIntel,60,,,,,,,,,,,,,,,,,,,,j,4.6675,1,1,1,,,,,,,,,,l,5.418699999,1,3,0,0,0,0,1,,,,,,,
,,,,,,,,,,,,,,,,262,1,2023-12-13_13h29.40.856,Online_SceneSrcMD_R,2020.2.10,MacIntel,60,,,,,,,,,,,,,,,,,,,,,,,,,0,10,10,10,1,E2-9920_Rec.png,1,E2-9920Real.png,1,,,,,,,,,,,,,,,,
,,,,,,,,,,,,,,,,262,1,2023-12-13_13h29.40.856,Online_SceneSrcMD_R,2020.2.10,MacIntel,60,,,,,,,,,,,,,,,,,,,,s,4.1689,0,2,0,0,11,11,11,1,E1-6571_Rec.png,0,E1-6571_SrcRec.png,0,,,,,,,,,,,,,,,,
,,,,,,,,,,,,,,,,262,1,2023-12-13_13h29.40.856,Online_SceneSrcMD_R,2020.2.10,MacIntel,60,,,,,,,,,,,,,,,,,,,,l,2.0355,1,3,1,,,,,,,,,,j,10.0238,1,1,0,0,0,0,1,,,,,,,
,,,,,,,,,,,,,,,,262,1,2023-12-13_13h29.40.856,Online_SceneSrcMD_R,2020.2.10,MacIntel,60,,,,,,,,,,,,,,,,,,,,,,,,,0,12,12,12,1,E2-6540_Rec.png,1,E2-6540Real.png,1,,,,,,,,,,,,,,,,
,,,,,,,,,,,,,,,,262,1,2023-12-13_13h29.40.856,Online_SceneSrcMD_R,2020.2.10,MacIntel,60,,,,,,,,,,,,,,,,,,,,a,5.565599998,0,3,0,0,13,13,13,1,N2-5875_Rec.png,1,N2-5875Real.png,1,,,,,,,,,,,,,,,,
,,,,,,,,,,,,,,,,262,1,2023-12-13_13h29.40.856,Online_SceneSrcMD_R,2020.2.10,MacIntel,60,,,,,,,,,,,,,,,,,,,,l,3.6219,1,3,1,,,,,,,,,,d,6.5736,0,1,0,0,0,0,1,,,,,,,
,,,,,,,,,,,,,,,,262,1,2023-12-13_13h29.40.856,Online_SceneSrcMD_R,2020.2.10,MacIntel,60,,,,,,,,,,,,,,,,,,,,,,,,,0,14,14,14,1,E2-9500_Rec.png,1,E2-9500_SrcRec.png,0,,,,,,,,,,,,,,,,
,,,,,,,,,,,,,,,,262,1,2023-12-13_13h29.40.856,Online_SceneSrcMD_R,2020.2.10,MacIntel,60,,,,,,,,,,,,,,,,,,,,k,2.2751,1,2,1,,,,,,,,,,j,3.5891,1,1,0,0,0,0,1,,,,,,,
,,,,,,,,,,,,,,,,262,1,2023-12-13_13h29.40.856,Online_SceneSrcMD_R,2020.2.10,MacIntel,60,,,,,,,,,,,,,,,,,,,,,,,,,0,15,15,15,1,N2-1910_Rec.png,1,N2-1910_SrcRec.png,0,,,,,,,,,,,,,,,,
,,,,,,,,,,,,,,,,262,1,2023-12-13_13h29.40.856,Online_SceneSrcMD_R,2020.2.10,MacIntel,60,,,,,,,,,,,,,,,,,,,,a,1.690699999,0,3,0,0,16,16,16,1,N1-1670_Rec.png,0,N1-1670Real.png,1,,,,,,,,,,,,,,,,
,,,,,,,,,,,,,,,,262,1,2023-12-13_13h29.40.856,Online_SceneSrcMD_R,2020.2.10,MacIntel,60,,,,,,,,,,,,,,,,,,,,a,2.9641,0,3,0,0,17,17,17,1,E1-3220_Rec.png,0,E1-3220Real.png,1,,,,,,,,,,,,,,,,
,,,,,,,,,,,,,,,,262,1,2023-12-13_13h29.40.856,Online_SceneSrcMD_R,2020.2.10,MacIntel,60,,,,,,,,,,,,,,,,,,,,a,1.8494,0,3,0,0,18,18,18,1,E1-9561_Rec.png,0,E1-9561_SrcRec.png,0,,,,,,,,,,,,,,,,
,,,,,,,,,,,,,,,,262,1,2023-12-13_13h29.40.856,Online_SceneSrcMD_R,2020.2.10,MacIntel,60,,,,,,,,,,,,,,,,,,,,s,4.6814,0,2,0,0,19,19,19,1,N2-9913_Rec.png,1,N2-9913_SrcRec.png,0,,,,,,,,,,,,,,,,
,,,,,,,,,,,,,,,,262,1,2023-12-13_13h29.40.856,Online_SceneSrcMD_R,2020.2.10,MacIntel,60,,,,,,,,,,,,,,,,,,,,,,,,,,,,,,,,,,,,,,,,,,,0,0,0,0,1,BlockSeven.csv,Src_BlockOne.csv
,,,,,,,,,,,,,,,,262,1,2023-12-13_13h29.40.856,Online_SceneSrcMD_R,2020.2.10,MacIntel,60,,,,,,,,,,,,,,,,,,,,l,2.8809,1,3,1,,,,,,,,,,l,4.363299999,1,3,0,0,0,0,1,,,,,,,
,,,,,,,,,,,,,,,,262,1,2023-12-13_13h29.40.856,Online_SceneSrcMD_R,2020.2.10,MacIntel,60,,,,,,,,,,,,,,,,,,,,,,,,,0,0,0,0,1,N2-7600_Rec.png,1,N2-7600Real.png,1,,,,,,,,,,,,,,,,
,,,,,,,,,,,,,,,,262,1,2023-12-13_13h29.40.856,Online_SceneSrcMD_R,2020.2.10,MacIntel,60,,,,,,,,,,,,,,,,,,,,a,1.5686,0,3,0,0,1,1,1,1,N1-2383_Rec.png,0,N1-2383_SrcRec.png,0,,,,,,,,,,,,,,,,
,,,,,,,,,,,,,,,,262,1,2023-12-13_13h29.40.856,Online_SceneSrcMD_R,2020.2.10,MacIntel,60,,,,,,,,,,,,,,,,,,,,k,2.419699999,1,2,1,,,,,,,,,,j,2.916699999,1,1,0,0,0,0,1,,,,,,,
,,,,,,,,,,,,,,,,262,1,2023-12-13_13h29.40.856,Online_SceneSrcMD_R,2020.2.10,MacIntel,60,,,,,,,,,,,,,,,,,,,,,,,,,0,2,2,2,1,E2-1932_Rec.png,1,E2-1932Real.png,1,,,,,,,,,,,,,,,,
,,,,,,,,,,,,,,,,262,1,2023-12-13_13h29.40.856,Online_SceneSrcMD_R,2020.2.10,MacIntel,60,,,,,,,,,,,,,,,,,,,,s,2.344299999,0,2,0,0,3,3,3,1,N1-5731_Rec.png,0,N1-5731Real.png,1,,,,,,,,,,,,,,,,
,,,,,,,,,,,,,,,,262,1,2023-12-13_13h29.40.856,Online_SceneSrcMD_R,2020.2.10,MacIntel,60,,,,,,,,,,,,,,,,,,,,l,1.1919,1,3,1,,,,,,,,,,k,4.353799999,1,2,0,0,0,0,1,,,,,,,
,,,,,,,,,,,,,,,,262,1,2023-12-13_13h29.40.856,Online_SceneSrcMD_R,2020.2.10,MacIntel,60,,,,,,,,,,,,,,,,,,,,,,,,,0,4,4,4,1,E2-3261_Rec.png,1,E2-3261_SrcRec.png,0,,,,,,,,,,,,,,,,
,,,,,,,,,,,,,,,,262,1,2023-12-13_13h29.40.856,Online_SceneSrcMD_R,2020.2.10,MacIntel,60,,,,,,,,,,,,,,,,,,,,a,1.5389,0,3,0,0,5,5,5,1,E1-3015_Rec.png,0,E1-3015Real.png,1,,,,,,,,,,,,,,,,
,,,,,,,,,,,,,,,,262,1,2023-12-13_13h29.40.856,Online_SceneSrcMD_R,2020.2.10,MacIntel,60,,,,,,,,,,,,,,,,,,,,a,1.2604,0,3,0,0,6,6,6,1,E1-9252_Rec.png,0,E1-9252_SrcRec.png,0,,,,,,,,,,,,,,,,
,,,,,,,,,,,,,,,,262,1,2023-12-13_13h29.40.856,Online_SceneSrcMD_R,2020.2.10,MacIntel,60,,,,,,,,,,,,,,,,,,,,l,2.8289,1,3,1,,,,,,,,,,l,2.6554,1,3,0,0,0,0,1,,,,,,,
,,,,,,,,,,,,,,,,262,1,2023-12-13_13h29.40.856,Online_SceneSrcMD_R,2020.2.10,MacIntel,60,,,,,,,,,,,,,,,,,,,,,,,,,0,7,7,7,1,N2-4603_Rec.png,1,N2-4603_SrcRec.png,0,,,,,,,,,,,,,,,,
,,,,,,,,,,,,,,,,262,1,2023-12-13_13h29.40.856,Online_SceneSrcMD_R,2020.2.10,MacIntel,60,,,,,,,,,,,,,,,,,,,,k,8.479200001,1,2,1,,,,,,,,,,j,8.4321,1,1,0,0,0,0,1,,,,,,,
,,,,,,,,,,,,,,,,262,1,2023-12-13_13h29.40.856,Online_SceneSrcMD_R,2020.2.10,MacIntel,60,,,,,,,,,,,,,,,,,,,,,,,,,0,8,8,8,1,E1-9911_Rec.png,0,E1-9911Real.png,1,,,,,,,,,,,,,,,,
,,,,,,,,,,,,,,,,262,1,2023-12-13_13h29.40.856,Online_SceneSrcMD_R,2020.2.10,MacIntel,60,,,,,,,,,,,,,,,,,,,,l,1.263700001,1,3,1,,,,,,,,,,j,1.832300001,1,1,0,0,0,0,1,,,,,,,
,,,,,,,,,,,,,,,,262,1,2023-12-13_13h29.40.856,Online_SceneSrcMD_R,2020.2.10,MacIntel,60,,,,,,,,,,,,,,,,,,,,,,,,,0,9,9,9,1,E2-9265_Rec.png,1,E2-9265_SrcRec.png,0,,,,,,,,,,,,,,,,
,,,,,,,,,,,,,,,,262,1,2023-12-13_13h29.40.856,Online_SceneSrcMD_R,2020.2.10,MacIntel,60,,,,,,,,,,,,,,,,,,,,a,3.518700001,0,3,0,0,10,10,10,1,N1-2575_Rec.png,0,N1-2575Real.png,1,,,,,,,,,,,,,,,,
,,,,,,,,,,,,,,,,262,1,2023-12-13_13h29.40.856,Online_SceneSrcMD_R,2020.2.10,MacIntel,60,,,,,,,,,,,,,,,,,,,,k,2.556199999,1,2,1,,,,,,,,,,d,4.4294,0,1,0,0,0,0,1,,,,,,,
,,,,,,,,,,,,,,,,262,1,2023-12-13_13h29.40.856,Online_SceneSrcMD_R,2020.2.10,MacIntel,60,,,,,,,,,,,,,,,,,,,,,,,,,0,11,11,11,1,N2-1600_Rec.png,1,N2-1600_SrcRec.png,0,,,,,,,,,,,,,,,,
,,,,,,,,,,,,,,,,262,1,2023-12-13_13h29.40.856,Online_SceneSrcMD_R,2020.2.10,MacIntel,60,,,,,,,,,,,,,,,,,,,,l,2.2719,1,3,1,,,,,,,,,,d,6.4054,0,1,0,0,0,0,1,,,,,,,
,,,,,,,,,,,,,,,,262,1,2023-12-13_13h29.40.856,Online_SceneSrcMD_R,2020.2.10,MacIntel,60,,,,,,,,,,,,,,,,,,,,,,,,,0,12,12,12,1,E2-6415_Rec.png,1,E2-6415Real.png,1,,,,,,,,,,,,,,,,
,,,,,,,,,,,,,,,,262,1,2023-12-13_13h29.40.856,Online_SceneSrcMD_R,2020.2.10,MacIntel,60,,,,,,,,,,,,,,,,,,,,l,2.698699999,1,3,1,,,,,,,,,,k,2.1314,1,2,0,0,0,0,1,,,,,,,
,,,,,,,,,,,,,,,,262,1,2023-12-13_13h29.40.856,Online_SceneSrcMD_R,2020.2.10,MacIntel,60,,,,,,,,,,,,,,,,,,,,,,,,,0,13,13,13,1,N2-8465_Rec.png,1,N2-8465Real.png,1,,,,,,,,,,,,,,,,
,,,,,,,,,,,,,,,,262,1,2023-12-13_13h29.40.856,Online_SceneSrcMD_R,2020.2.10,MacIntel,60,,,,,,,,,,,,,,,,,,,,a,1.0004,0,3,0,0,14,14,14,1,N1-2500_Rec.png,0,N1-2500_SrcRec.png,0,,,,,,,,,,,,,,,,
,,,,,,,,,,,,,,,,262,1,2023-12-13_13h29.40.856,Online_SceneSrcMD_R,2020.2.10,MacIntel,60,,,,,,,,,,,,,,,,,,,,a,1.5209,0,3,0,0,15,15,15,1,E1-3280_Rec.png,0,E1-3280_SrcRec.png,0,,,,,,,,,,,,,,,,
,,,,,,,,,,,,,,,,262,1,2023-12-13_13h29.40.856,Online_SceneSrcMD_R,2020.2.10,MacIntel,60,,,,,,,,,,,,,,,,,,,,s,2.953,0,2,0,0,16,16,16,1,N1-1812_Rec.png,0,N1-1812Real.png,1,,,,,,,,,,,,,,,,
,,,,,,,,,,,,,,,,262,1,2023-12-13_13h29.40.856,Online_SceneSrcMD_R,2020.2.10,MacIntel,60,,,,,,,,,,,,,,,,,,,,j,8.517699999,1,1,1,,,,,,,,,,k,1.9191,1,2,0,0,0,0,1,,,,,,,
,,,,,,,,,,,,,,,,262,1,2023-12-13_13h29.40.856,Online_SceneSrcMD_R,2020.2.10,MacIntel,60,,,,,,,,,,,,,,,,,,,,,,,,,0,17,17,17,1,E2-3350_Rec.png,1,E2-3350Real.png,1,,,,,,,,,,,,,,,,
,,,,,,,,,,,,,,,,262,1,2023-12-13_13h29.40.856,Online_SceneSrcMD_R,2020.2.10,MacIntel,60,,,,,,,,,,,,,,,,,,,,l,2.0024,1,3,1,,,,,,,,,,j,7.4194,1,1,0,0,0,0,1,,,,,,,
,,,,,,,,,,,,,,,,262,1,2023-12-13_13h29.40.856,Online_SceneSrcMD_R,2020.2.10,MacIntel,60,,,,,,,,,,,,,,,,,,,,,,,,,0,18,18,18,1,N2-2840_Rec.png,1,N2-2840_SrcRec.png,0,,,,,,,,,,,,,,,,
,,,,,,,,,,,,,,,,262,1,2023-12-13_13h29.40.856,Online_SceneSrcMD_R,2020.2.10,MacIntel,60,,,,,,,,,,,,,,,,,,,,a,1.2661,0,3,0,0,19,19,19,1,E1-9254_Rec.png,0,E1-9254_SrcRec.png,0,,,,,,,,,,,,,,,,
,,,,,,,,,,,,,,,,262,1,2023-12-13_13h29.40.856,Online_SceneSrcMD_R,2020.2.10,MacIntel,60,,,,,,,,,,,,,,,,,,,,,,,,,,,,,,,,,,,,,,,,,,,0,1,1,1,1,BlockEight.csv,Src_BlockTwo.csv
,,,,,,,,,,,,,,,,262,1,2023-12-13_13h29.40.856,Online_SceneSrcMD_R,2020.2.10,MacIntel,60,,,,,,,,,,,,,,,,,,,,a,1.486,0,3,0,0,0,0,0,1,E1-1310_Rec.png,0,E1-1310Real.png,1,,,,,,,,,,,,,,,,
,,,,,,,,,,,,,,,,262,1,2023-12-13_13h29.40.856,Online_SceneSrcMD_R,2020.2.10,MacIntel,60,,,,,,,,,,,,,,,,,,,,d,3.055799999,0,1,0,0,1,1,1,1,E1-2800_Rec.png,0,E1-2800_SrcRec.png,0,,,,,,,,,,,,,,,,
,,,,,,,,,,,,,,,,262,1,2023-12-13_13h29.40.856,Online_SceneSrcMD_R,2020.2.10,MacIntel,60,,,,,,,,,,,,,,,,,,,,s,3.703200001,0,2,0,0,2,2,2,1,E1-2352_2_Rec.png,0,E1-2352_2Real.png,1,,,,,,,,,,,,,,,,
,,,,,,,,,,,,,,,,262,1,2023-12-13_13h29.40.856,Online_SceneSrcMD_R,2020.2.10,MacIntel,60,,,,,,,,,,,,,,,,,,,,k,2.583699999,1,2,1,,,,,,,,,,k,3.5005,1,2,0,0,0,0,1,,,,,,,
,,,,,,,,,,,,,,,,262,1,2023-12-13_13h29.40.856,Online_SceneSrcMD_R,2020.2.10,MacIntel,60,,,,,,,,,,,,,,,,,,,,,,,,,0,3,3,3,1,N2-8160_Rec.png,1,N2-8160Real.png,1,,,,,,,,,,,,,,,,
,,,,,,,,,,,,,,,,262,1,2023-12-13_13h29.40.856,Online_SceneSrcMD_R,2020.2.10,MacIntel,60,,,,,,,,,,,,,,,,,,,,s,3.2019,0,2,0,0,4,4,4,1,N1-2190_Rec.png,0,N1-2190_SrcRec.png,0,,,,,,,,,,,,,,,,
,,,,,,,,,,,,,,,,262,1,2023-12-13_13h29.40.856,Online_SceneSrcMD_R,2020.2.10,MacIntel,60,,,,,,,,,,,,,,,,,,,,a,1.4579,0,3,0,0,5,5,5,1,E1-3550_Rec.png,0,E1-3550_SrcRec.png,0,,,,,,,,,,,,,,,,
,,,,,,,,,,,,,,,,262,1,2023-12-13_13h29.40.856,Online_SceneSrcMD_R,2020.2.10,MacIntel,60,,,,,,,,,,,,,,,,,,,,d,4.8201,0,1,0,0,6,6,6,1,N2-5395_Rec.png,1,N2-5395Real.png,1,,,,,,,,,,,,,,,,
,,,,,,,,,,,,,,,,262,1,2023-12-13_13h29.40.856,Online_SceneSrcMD_R,2020.2.10,MacIntel,60,,,,,,,,,,,,,,,,,,,,a,3.933299999,0,3,0,0,7,7,7,1,N1-7503_Rec.png,0,N1-7503_SrcRec.png,0,,,,,,,,,,,,,,,,
,,,,,,,,,,,,,,,,262,1,2023-12-13_13h29.40.856,Online_SceneSrcMD_R,2020.2.10,MacIntel,60,,,,,,,,,,,,,,,,,,,,a,1.853700001,0,3,0,0,8,8,8,1,N1-2597_Rec.png,0,N1-2597Real.png,1,,,,,,,,,,,,,,,,
,,,,,,,,,,,,,,,,262,1,2023-12-13_13h29.40.856,Online_SceneSrcMD_R,2020.2.10,MacIntel,60,,,,,,,,,,,,,,,,,,,,l,1.3509,1,3,1,,,,,,,,,,j,3.599,1,1,0,0,0,0,1,,,,,,,
,,,,,,,,,,,,,,,,262,1,2023-12-13_13h29.40.856,Online_SceneSrcMD_R,2020.2.10,MacIntel,60,,,,,,,,,,,,,,,,,,,,,,,,,0,9,9,9,1,E2-9140_Rec.png,1,E2-9140Real.png,1,,,,,,,,,,,,,,,,
,,,,,,,,,,,,,,,,262,1,2023-12-13_13h29.40.856,Online_SceneSrcMD_R,2020.2.10,MacIntel,60,,,,,,,,,,,,,,,,,,,,d,4.153300001,0,1,0,0,10,10,10,1,E1-3160_Rec.png,0,E1-3160_SrcRec.png,0,,,,,,,,,,,,,,,,
,,,,,,,,,,,,,,,,262,1,2023-12-13_13h29.40.856,Online_SceneSrcMD_R,2020.2.10,MacIntel,60,,,,,,,,,,,,,,,,,,,,s,1.754699999,0,2,0,0,11,11,11,1,N1-5471_Rec.png,0,N1-5471_SrcRec.png,0,,,,,,,,,,,,,,,,
,,,,,,,,,,,,,,,,262,1,2023-12-13_13h29.40.856,Online_SceneSrcMD_R,2020.2.10,MacIntel,60,,,,,,,,,,,,,,,,,,,,d,4.5075,0,1,0,0,12,12,12,1,N1-4605_Rec.png,0,N1-4605Real.png,1,,,,,,,,,,,,,,,,
,,,,,,,,,,,,,,,,262,1,2023-12-13_13h29.40.856,Online_SceneSrcMD_R,2020.2.10,MacIntel,60,,,,,,,,,,,,,,,,,,,,d,4.5341,0,1,0,0,13,13,13,1,N2-2221_Rec.png,1,N2-2221_SrcRec.png,0,,,,,,,,,,,,,,,,
,,,,,,,,,,,,,,,,262,1,2023-12-13_13h29.40.856,Online_SceneSrcMD_R,2020.2.10,MacIntel,60,,,,,,,,,,,,,,,,,,,,l,1.2336,1,3,1,,,,,,,,,,j,1.9861,1,1,0,0,0,0,1,,,,,,,
,,,,,,,,,,,,,,,,262,1,2023-12-13_13h29.40.856,Online_SceneSrcMD_R,2020.2.10,MacIntel,60,,,,,,,,,,,,,,,,,,,,,,,,,0,14,14,14,1,E2-3400_Rec.png,1,E2-3400Real.png,1,,,,,,,,,,,,,,,,
,,,,,,,,,,,,,,,,262,1,2023-12-13_13h29.40.856,Online_SceneSrcMD_R,2020.2.10,MacIntel,60,,,,,,,,,,,,,,,,,,,,s,2.309400002,0,2,0,0,15,15,15,1,N2-7546_Rec.png,1,N2-7546Real.png,1,,,,,,,,,,,,,,,,
,,,,,,,,,,,,,,,,262,1,2023-12-13_13h29.40.856,Online_SceneSrcMD_R,2020.2.10,MacIntel,60,,,,,,,,,,,,,,,,,,,,l,1.722699999,1,3,1,,,,,,,,,,j,3.769299999,1,1,0,0,0,0,1,,,,,,,
,,,,,,,,,,,,,,,,262,1,2023-12-13_13h29.40.856,Online_SceneSrcMD_R,2020.2.10,MacIntel,60,,,,,,,,,,,,,,,,,,,,,,,,,0,16,16,16,1,E2-3500_Rec.png,1,E2-3500_SrcRec.png,0,,,,,,,,,,,,,,,,
,,,,,,,,,,,,,,,,262,1,2023-12-13_13h29.40.856,Online_SceneSrcMD_R,2020.2.10,MacIntel,60,,,,,,,,,,,,,,,,,,,,l,1.539799999,1,3,1,,,,,,,,,,l,3.9755,1,3,0,0,0,0,1,,,,,,,
,,,,,,,,,,,,,,,,262,1,2023-12-13_13h29.40.856,Online_SceneSrcMD_R,2020.2.10,MacIntel,60,,,,,,,,,,,,,,,,,,,,,,,,,0,17,17,17,1,N2-2518_Rec.png,1,N2-2518_SrcRec.png,0,,,,,,,,,,,,,,,,
,,,,,,,,,,,,,,,,262,1,2023-12-13_13h29.40.856,Online_SceneSrcMD_R,2020.2.10,MacIntel,60,,,,,,,,,,,,,,,,,,,,j,3.873200001,1,1,1,,,,,,,,,,j,1.500700001,1,1,0,0,0,0,1,,,,,,,
,,,,,,,,,,,,,,,,262,1,2023-12-13_13h29.40.856,Online_SceneSrcMD_R,2020.2.10,MacIntel,60,,,,,,,,,,,,,,,,,,,,,,,,,0,18,18,18,1,E2-9622_Rec.png,1,E2-9622Real.png,1,,,,,,,,,,,,,,,,
,,,,,,,,,,,,,,,,262,1,2023-12-13_13h29.40.856,Online_SceneSrcMD_R,2020.2.10,MacIntel,60,,,,,,,,,,,,,,,,,,,,l,2.5814,1,3,1,,,,,,,,,,d,3.337299999,0,1,0,0,0,0,1,,,,,,,
,,,,,,,,,,,,,,,,262,1,2023-12-13_13h29.40.856,Online_SceneSrcMD_R,2020.2.10,MacIntel,60,,,,,,,,,,,,,,,,,,,,,,,,,0,19,19,19,1,E2-9040_Rec.png,1,E2-9040_SrcRec.png,0,,,,,,,,,,,,,,,,
,,,,,,,,,,,,,,,,262,1,2023-12-13_13h29.40.856,Online_SceneSrcMD_R,2020.2.10,MacIntel,60,,,,,,,,,,,,,,,,,,,,,,,,,,,,,,,,,,,,,,,,,,,0,2,2,2,1,BlockNine.csv,Src_BlockThree.csv
,,,,,,,,,,,,,,,,262,1,2023-12-13_13h29.40.856,Online_SceneSrcMD_R,2020.2.10,MacIntel,60,,,,,,,,,,,,,,,,,,,,d,2.058200001,0,1,0,0,0,0,0,1,E2-9230_Rec.png,1,E2-9230Real.png,1,,,,,,,,,,,,,,,,
,,,,,,,,,,,,,,,,262,1,2023-12-13_13h29.40.856,Online_SceneSrcMD_R,2020.2.10,MacIntel,60,,,,,,,,,,,,,,,,,,,,l,1.853199999,1,3,1,,,,,,,,,,k,3.386299999,1,2,0,0,0,0,1,,,,,,,
,,,,,,,,,,,,,,,,262,1,2023-12-13_13h29.40.856,Online_SceneSrcMD_R,2020.2.10,MacIntel,60,,,,,,,,,,,,,,,,,,,,,,,,,0,1,1,1,1,E2-3170_Rec.png,1,E2-3170_SrcRec.png,0,,,,,,,,,,,,,,,,
,,,,,,,,,,,,,,,,262,1,2023-12-13_13h29.40.856,Online_SceneSrcMD_R,2020.2.10,MacIntel,60,,,,,,,,,,,,,,,,,,,,s,3.3995,0,2,0,0,2,2,2,1,N1-2870_Rec.png,0,N1-2870Real.png,1,,,,,,,,,,,,,,,,
,,,,,,,,,,,,,,,,262,1,2023-12-13_13h29.40.856,Online_SceneSrcMD_R,2020.2.10,MacIntel,60,,,,,,,,,,,,,,,,,,,,d,4.672300001,0,1,0,0,3,3,3,1,N2-1661_Rec.png,1,N2-1661_SrcRec.png,0,,,,,,,,,,,,,,,,
,,,,,,,,,,,,,,,,262,1,2023-12-13_13h29.40.856,Online_SceneSrcMD_R,2020.2.10,MacIntel,60,,,,,,,,,,,,,,,,,,,,a,1.161299999,0,3,0,0,4,4,4,1,E1-3061_Rec.png,0,E1-3061Real.png,1,,,,,,,,,,,,,,,,
,,,,,,,,,,,,,,,,262,1,2023-12-13_13h29.40.856,Online_SceneSrcMD_R,2020.2.10,MacIntel,60,,,,,,,,,,,,,,,,,,,,a,2.088200001,0,3,0,0,5,5,5,1,N1-2393_Rec.png,0,N1-2393Real.png,1,,,,,,,,,,,,,,,,
,,,,,,,,,,,,,,,,262,1,2023-12-13_13h29.40.856,Online_SceneSrcMD_R,2020.2.10,MacIntel,60,,,,,,,,,,,,,,,,,,,,k,1.5235,1,2,1,,,,,,,,,,d,1.9826,0,1,0,0,0,0,1,,,,,,,
,,,,,,,,,,,,,,,,262,1,2023-12-13_13h29.40.856,Online_SceneSrcMD_R,2020.2.10,MacIntel,60,,,,,,,,,,,,,,,,,,,,,,,,,0,6,6,6,1,N2-2616_Rec.png,1,N2-2616_SrcRec.png,0,,,,,,,,,,,,,,,,
,,,,,,,,,,,,,,,,262,1,2023-12-13_13h29.40.856,Online_SceneSrcMD_R,2020.2.10,MacIntel,60,,,,,,,,,,,,,,,,,,,,j,4.5739,1,1,1,,,,,,,,,,d,1.907,0,1,0,0,0,0,1,,,,,,,
,,,,,,,,,,,,,,,,262,1,2023-12-13_13h29.40.856,Online_SceneSrcMD_R,2020.2.10,MacIntel,60,,,,,,,,,,,,,,,,,,,,,,,,,0,7,7,7,1,E2-8230_Rec.png,1,E2-8230_SrcRec.png,0,,,,,,,,,,,,,,,,
,,,,,,,,,,,,,,,,262,1,2023-12-13_13h29.40.856,Online_SceneSrcMD_R,2020.2.10,MacIntel,60,,,,,,,,,,,,,,,,,,,,a,1.186700001,0,3,0,0,8,8,8,1,E1-1525_Rec.png,0,E1-1525Real.png,1,,,,,,,,,,,,,,,,
,,,,,,,,,,,,,,,,262,1,2023-12-13_13h29.40.856,Online_SceneSrcMD_R,2020.2.10,MacIntel,60,,,,,,,,,,,,,,,,,,,,a,0.901900002,0,3,0,0,9,9,9,1,N1-8311_Rec.png,0,N1-8311Real.png,1,,,,,,,,,,,,,,,,
,,,,,,,,,,,,,,,,262,1,2023-12-13_13h29.40.856,Online_SceneSrcMD_R,2020.2.10,MacIntel,60,,,,,,,,,,,,,,,,,,,,j,3.279200001,1,1,1,,,,,,,,,,d,3.800200001,0,1,0,0,0,0,1,,,,,,,
,,,,,,,,,,,,,,,,262,1,2023-12-13_13h29.40.856,Online_SceneSrcMD_R,2020.2.10,MacIntel,60,,,,,,,,,,,,,,,,,,,,,,,,,0,10,10,10,1,N2-2235_Rec.png,1,N2-2235_SrcRec.png,0,,,,,,,,,,,,,,,,
,,,,,,,,,,,,,,,,262,1,2023-12-13_13h29.40.856,Online_SceneSrcMD_R,2020.2.10,MacIntel,60,,,,,,,,,,,,,,,,,,,,l,1.949299999,1,3,1,,,,,,,,,,k,3.527799999,1,2,0,0,0,0,1,,,,,,,
,,,,,,,,,,,,,,,,262,1,2023-12-13_13h29.40.856,Online_SceneSrcMD_R,2020.2.10,MacIntel,60,,,,,,,,,,,,,,,,,,,,,,,,,0,11,11,11,1,E2-3230_Rec.png,1,E2-3230_SrcRec.png,0,,,,,,,,,,,,,,,,
,,,,,,,,,,,,,,,,262,1,2023-12-13_13h29.40.856,Online_SceneSrcMD_R,2020.2.10,MacIntel,60,,,,,,,,,,,,,,,,,,,,l,1.063700001,1,3,1,,,,,,,,,,j,5.5509,1,1,0,0,0,0,1,,,,,,,
,,,,,,,,,,,,,,,,262,1,2023-12-13_13h29.40.856,Online_SceneSrcMD_R,2020.2.10,MacIntel,60,,,,,,,,,,,,,,,,,,,,,,,,,0,12,12,12,1,N2-2594_Rec.png,1,N2-2594Real.png,1,,,,,,,,,,,,,,,,
,,,,,,,,,,,,,,,,262,1,2023-12-13_13h29.40.856,Online_SceneSrcMD_R,2020.2.10,MacIntel,60,,,,,,,,,,,,,,,,,,,,d,8.282699999,0,1,0,0,13,13,13,1,N2-2512_Rec.png,1,N2-2512_SrcRec.png,0,,,,,,,,,,,,,,,,
,,,,,,,,,,,,,,,,262,1,2023-12-13_13h29.40.856,Online_SceneSrcMD_R,2020.2.10,MacIntel,60,,,,,,,,,,,,,,,,,,,,j,2.958700001,1,1,1,,,,,,,,,,d,2.452199999,0,1,0,0,0,0,1,,,,,,,
,,,,,,,,,,,,,,,,262,1,2023-12-13_13h29.40.856,Online_SceneSrcMD_R,2020.2.10,MacIntel,60,,,,,,,,,,,,,,,,,,,,,,,,,0,14,14,14,1,E1-3168_Rec.png,0,E1-3168Real.png,1,,,,,,,,,,,,,,,,
,,,,,,,,,,,,,,,,262,1,2023-12-13_13h29.40.856,Online_SceneSrcMD_R,2020.2.10,MacIntel,60,,,,,,,,,,,,,,,,,,,,a,1.2186,0,3,0,0,15,15,15,1,E1-2053_Rec.png,0,E1-2053_SrcRec.png,0,,,,,,,,,,,,,,,,
,,,,,,,,,,,,,,,,262,1,2023-12-13_13h29.40.856,Online_SceneSrcMD_R,2020.2.10,MacIntel,60,,,,,,,,,,,,,,,,,,,,a,1.0201,0,3,0,0,16,16,16,1,N1-2605_Rec.png,0,N1-2605Real.png,1,,,,,,,,,,,,,,,,
,,,,,,,,,,,,,,,,262,1,2023-12-13_13h29.40.856,Online_SceneSrcMD_R,2020.2.10,MacIntel,60,,,,,,,,,,,,,,,,,,,,l,1.921200001,1,3,1,,,,,,,,,,j,5.6265,1,1,0,0,0,0,1,,,,,,,
,,,,,,,,,,,,,,,,262,1,2023-12-13_13h29.40.856,Online_SceneSrcMD_R,2020.2.10,MacIntel,60,,,,,,,,,,,,,,,,,,,,,,,,,0,17,17,17,1,E2-2716_Rec.png,1,E2-2716Real.png,1,,,,,,,,,,,,,,,,
,,,,,,,,,,,,,,,,262,1,2023-12-13_13h29.40.856,Online_SceneSrcMD_R,2020.2.10,MacIntel,60,,,,,,,,,,,,,,,,,,,,s,3.517,0,2,0,0,18,18,18,1,N1-5455_Rec.png,0,N1-5455_SrcRec.png,0,,,,,,,,,,,,,,,,
,,,,,,,,,,,,,,,,262,1,2023-12-13_13h29.40.856,Online_SceneSrcMD_R,2020.2.10,MacIntel,60,,,,,,,,,,,,,,,,,,,,a,2.387300001,0,3,0,0,19,19,19,1,E1-3068_Rec.png,0,E1-3068_SrcRec.png,0,,,,,,,,,,,,,,,,
,,,,,,,,,,,,,,,,262,1,2023-12-13_13h29.40.856,Online_SceneSrcMD_R,2020.2.10,MacIntel,60,,,,,,,,,,,,,,,,,,,,,,,,,,,,,,,,,,,,,,,,,,,0,3,3,3,1,BlockTen.csv,Src_BlockFour.csv
,,,,,,,,,,,,,,,,262,1,2023-12-13_13h29.40.856,Online_SceneSrcMD_R,2020.2.10,MacIntel,60,,,,,,,,,,,,,,,,,,,,l,1.687700001,1,3,1,,,,,,,,,,j,2.6869,1,1,0,0,0,0,1,,,,,,,
,,,,,,,,,,,,,,,,262,1,2023-12-13_13h29.40.856,Online_SceneSrcMD_R,2020.2.10,MacIntel,60,,,,,,,,,,,,,,,,,,,,,,,,,0,0,0,0,1,N2-2606_Rec.png,1,N2-2606Real.png,1,,,,,,,,,,,,,,,,
,,,,,,,,,,,,,,,,262,1,2023-12-13_13h29.40.856,Online_SceneSrcMD_R,2020.2.10,MacIntel,60,,,,,,,,,,,,,,,,,,,,j,3.739700001,1,1,1,,,,,,,,,,s,3.557200001,0,2,0,0,0,0,1,,,,,,,
,,,,,,,,,,,,,,,,262,1,2023-12-13_13h29.40.856,Online_SceneSrcMD_R,2020.2.10,MacIntel,60,,,,,,,,,,,,,,,,,,,,,,,,,0,1,1,1,1,E2-9410_Rec.png,1,E2-9410Real.png,1,,,,,,,,,,,,,,,,
,,,,,,,,,,,,,,,,262,1,2023-12-13_13h29.40.856,Online_SceneSrcMD_R,2020.2.10,MacIntel,60,,,,,,,,,,,,,,,,,,,,a,2.119900002,0,3,0,0,2,2,2,1,N1-9070_Rec.png,0,N1-9070_SrcRec.png,0,,,,,,,,,,,,,,,,
,,,,,,,,,,,,,,,,262,1,2023-12-13_13h29.40.856,Online_SceneSrcMD_R,2020.2.10,MacIntel,60,,,,,,,,,,,,,,,,,,,,j,3.8834,1,1,1,,,,,,,,,,s,3.6369,0,2,0,0,0,0,1,,,,,,,
,,,,,,,,,,,,,,,,262,1,2023-12-13_13h29.40.856,Online_SceneSrcMD_R,2020.2.10,MacIntel,60,,,,,,,,,,,,,,,,,,,,,,,,,0,3,3,3,1,E2-9340_Rec.png,1,E2-9340_SrcRec.png,0,,,,,,,,,,,,,,,,
,,,,,,,,,,,,,,,,262,1,2023-12-13_13h29.40.856,Online_SceneSrcMD_R,2020.2.10,MacIntel,60,,,,,,,,,,,,,,,,,,,,s,2.5165,0,2,0,0,4,4,4,1,N2-7560_Rec.png,1,N2-7560Real.png,1,,,,,,,,,,,,,,,,
,,,,,,,,,,,,,,,,262,1,2023-12-13_13h29.40.856,Online_SceneSrcMD_R,2020.2.10,MacIntel,60,,,,,,,,,,,,,,,,,,,,k,3.9661,1,2,1,,,,,,,,,,s,1.603099998,0,2,0,0,0,0,1,,,,,,,
,,,,,,,,,,,,,,,,262,1,2023-12-13_13h29.40.856,Online_SceneSrcMD_R,2020.2.10,MacIntel,60,,,,,,,,,,,,,,,,,,,,,,,,,0,5,5,5,1,E2-2900_1_Rec.png,1,E2-2900_1Real.png,1,,,,,,,,,,,,,,,,
,,,,,,,,,,,,,,,,262,1,2023-12-13_13h29.40.856,Online_SceneSrcMD_R,2020.2.10,MacIntel,60,,,,,,,,,,,,,,,,,,,,a,1.114200001,0,3,0,0,6,6,6,1,N2-7550_Rec.png,1,N2-7550_SrcRec.png,0,,,,,,,,,,,,,,,,
,,,,,,,,,,,,,,,,262,1,2023-12-13_13h29.40.856,Online_SceneSrcMD_R,2020.2.10,MacIntel,60,,,,,,,,,,,,,,,,,,,,a,0.908800001,0,3,0,0,7,7,7,1,N1-5390_Rec.png,0,N1-5390Real.png,1,,,,,,,,,,,,,,,,
,,,,,,,,,,,,,,,,262,1,2023-12-13_13h29.40.856,Online_SceneSrcMD_R,2020.2.10,MacIntel,60,,,,,,,,,,,,,,,,,,,,a,0.8671,0,3,0,0,8,8,8,1,E1-3150_Rec.png,0,E1-3150_SrcRec.png,0,,,,,,,,,,,,,,,,
,,,,,,,,,,,,,,,,262,1,2023-12-13_13h29.40.856,Online_SceneSrcMD_R,2020.2.10,MacIntel,60,,,,,,,,,,,,,,,,,,,,k,1.416799999,1,2,1,,,,,,,,,,l,2.885299999,1,3,0,0,0,0,1,,,,,,,
,,,,,,,,,,,,,,,,262,1,2023-12-13_13h29.40.856,Online_SceneSrcMD_R,2020.2.10,MacIntel,60,,,,,,,,,,,,,,,,,,,,,,,,,0,9,9,9,1,E2-9582_Rec.png,1,E2-9582Real.png,1,,,,,,,,,,,,,,,,
,,,,,,,,,,,,,,,,262,1,2023-12-13_13h29.40.856,Online_SceneSrcMD_R,2020.2.10,MacIntel,60,,,,,,,,,,,,,,,,,,,,a,0.9695,0,3,0,0,10,10,10,1,E2-9420_Rec.png,1,E2-9420_SrcRec.png,0,,,,,,,,,,,,,,,,
,,,,,,,,,,,,,,,,262,1,2023-12-13_13h29.40.856,Online_SceneSrcMD_R,2020.2.10,MacIntel,60,,,,,,,,,,,,,,,,,,,,a,3.023699999,0,3,0,0,11,11,11,1,N1-2485_Rec.png,0,N1-2485_SrcRec.png,0,,,,,,,,,,,,,,,,
,,,,,,,,,,,,,,,,262,1,2023-12-13_13h29.40.856,Online_SceneSrcMD_R,2020.2.10,MacIntel,60,,,,,,,,,,,,,,,,,,,,l,1.488700001,1,3,1,,,,,,,,,,l,1.3215,1,3,0,0,0,0,1,,,,,,,
,,,,,,,,,,,,,,,,262,1,2023-12-13_13h29.40.856,Online_SceneSrcMD_R,2020.2.10,MacIntel,60,,,,,,,,,,,,,,,,,,,,,,,,,0,12,12,12,1,N2-7491_Rec.png,1,N2-7491Real.png,1,,,,,,,,,,,,,,,,
,,,,,,,,,,,,,,,,262,1,2023-12-13_13h29.40.856,Online_SceneSrcMD_R,2020.2.10,MacIntel,60,,,,,,,,,,,,,,,,,,,,j,2.599599998,1,1,1,,,,,,,,,,s,3.3315,0,2,0,0,0,0,1,,,,,,,
,,,,,,,,,,,,,,,,262,1,2023-12-13_13h29.40.856,Online_SceneSrcMD_R,2020.2.10,MacIntel,60,,,,,,,,,,,,,,,,,,,,,,,,,0,13,13,13,1,E1-2691_Rec.png,0,E1-2691Real.png,1,,,,,,,,,,,,,,,,
,,,,,,,,,,,,,,,,262,1,2023-12-13_13h29.40.856,Online_SceneSrcMD_R,2020.2.10,MacIntel,60,,,,,,,,,,,,,,,,,,,,s,3.5186,0,2,0,0,14,14,14,1,N1-7640_Rec.png,0,N1-7640_SrcRec.png,0,,,,,,,,,,,,,,,,
,,,,,,,,,,,,,,,,262,1,2023-12-13_13h29.40.856,Online_SceneSrcMD_R,2020.2.10,MacIntel,60,,,,,,,,,,,,,,,,,,,,a,1.101799999,0,3,0,0,15,15,15,1,E1-9253_Rec.png,0,E1-9253_SrcRec.png,0,,,,,,,,,,,,,,,,
,,,,,,,,,,,,,,,,262,1,2023-12-13_13h29.40.856,Online_SceneSrcMD_R,2020.2.10,MacIntel,60,,,,,,,,,,,,,,,,,,,,l,1.3704,1,3,1,,,,,,,,,,d,3.7051,0,1,0,0,0,0,1,,,,,,,
,,,,,,,,,,,,,,,,262,1,2023-12-13_13h29.40.856,Online_SceneSrcMD_R,2020.2.10,MacIntel,60,,,,,,,,,,,,,,,,,,,,,,,,,0,16,16,16,1,N2-6570_2_Rec.png,1,N2-6570_2Real.png,1,,,,,,,,,,,,,,,,
,,,,,,,,,,,,,,,,262,1,2023-12-13_13h29.40.856,Online_SceneSrcMD_R,2020.2.10,MacIntel,60,,,,,,,,,,,,,,,,,,,,a,3.348299999,0,3,0,0,17,17,17,1,E1-9250_Rec.png,0,E1-9250Real.png,1,,,,,,,,,,,,,,,,
,,,,,,,,,,,,,,,,262,1,2023-12-13_13h29.40.856,Online_SceneSrcMD_R,2020.2.10,MacIntel,60,,,,,,,,,,,,,,,,,,,,a,2.255700001,0,3,0,0,18,18,18,1,E1-9600_Rec.png,0,E1-9600_SrcRec.png,0,,,,,,,,,,,,,,,,
,,,,,,,,,,,,,,,,262,1,2023-12-13_13h29.40.856,Online_SceneSrcMD_R,2020.2.10,MacIntel,60,,,,,,,,,,,,,,,,,,,,a,0.726799999,0,3,0,0,19,19,19,1,N1-1947_Rec.png,0,N1-1947_SrcRec.png,0,,,,,,,,,,,,,,,,
,,,,,,,,,,,,,,,,262,1,2023-12-13_13h29.40.856,Online_SceneSrcMD_R,2020.2.10,MacIntel,60,,,,,,,,,,,,,,,,,,,,,,,,,,,,,,,,,,,,,,,,,,,0,4,4,4,1,BlockEleven.csv,Src_BlockFive.csv
,,,,,,,,,,,,,,,,262,1,2023-12-13_13h29.40.856,Online_SceneSrcMD_R,2020.2.10,MacIntel,60,,,,,,,,,,,,,,,,,,,,a,0.9964,0,3,0,0,0,0,0,1,E1-9810_Rec.png,0,E1-9810Real.png,1,,,,,,,,,,,,,,,,
,,,,,,,,,,,,,,,,262,1,2023-12-13_13h29.40.856,Online_SceneSrcMD_R,2020.2.10,MacIntel,60,,,,,,,,,,,,,,,,,,,,s,2.796,0,2,0,0,1,1,1,1,N1-2593_Rec.png,0,N1-2593Real.png,1,,,,,,,,,,,,,,,,
,,,,,,,,,,,,,,,,262,1,2023-12-13_13h29.40.856,Online_SceneSrcMD_R,2020.2.10,MacIntel,60,,,,,,,,,,,,,,,,,,,,s,1.0514,0,2,0,0,2,2,2,1,E1-9830_Rec.png,0,E1-9830_SrcRec.png,0,,,,,,,,,,,,,,,,
,,,,,,,,,,,,,,,,262,1,2023-12-13_13h29.40.856,Online_SceneSrcMD_R,2020.2.10,MacIntel,60,,,,,,,,,,,,,,,,,,,,k,2.2851,1,2,1,,,,,,,,,,d,3.5025,0,1,0,0,0,0,1,,,,,,,
,,,,,,,,,,,,,,,,262,1,2023-12-13_13h29.40.856,Online_SceneSrcMD_R,2020.2.10,MacIntel,60,,,,,,,,,,,,,,,,,,,,,,,,,0,3,3,3,1,N2-2200_Rec.png,1,N2-2200_SrcRec.png,0,,,,,,,,,,,,,,,,
,,,,,,,,,,,,,,,,262,1,2023-12-13_13h29.40.856,Online_SceneSrcMD_R,2020.2.10,MacIntel,60,,,,,,,,,,,,,,,,,,,,d,4.355200001,0,1,0,0,4,4,4,1,N1-8041_Rec.png,0,N1-8041Real.png,1,,,,,,,,,,,,,,,,
,,,,,,,,,,,,,,,,262,1,2023-12-13_13h29.40.856,Online_SceneSrcMD_R,2020.2.10,MacIntel,60,,,,,,,,,,,,,,,,,,,,s,6.1495,0,2,0,0,5,5,5,1,E1-9180_Rec.png,0,E1-9180Real.png,1,,,,,,,,,,,,,,,,
,,,,,,,,,,,,,,,,262,1,2023-12-13_13h29.40.856,Online_SceneSrcMD_R,2020.2.10,MacIntel,60,,,,,,,,,,,,,,,,,,,,l,1.434199999,1,3,1,,,,,,,,,,k,2.3244,1,2,0,0,0,0,1,,,,,,,
,,,,,,,,,,,,,,,,262,1,2023-12-13_13h29.40.856,Online_SceneSrcMD_R,2020.2.10,MacIntel,60,,,,,,,,,,,,,,,,,,,,,,,,,0,6,6,6,1,N2-2620_Rec.png,1,N2-2620_SrcRec.png,0,,,,,,,,,,,,,,,,
,,,,,,,,,,,,,,,,262,1,2023-12-13_13h29.40.856,Online_SceneSrcMD_R,2020.2.10,MacIntel,60,,,,,,,,,,,,,,,,,,,,k,2.126799999,1,2,1,,,,,,,,,,j,2.134699999,1,1,0,0,0,0,1,,,,,,,
,,,,,,,,,,,,,,,,262,1,2023-12-13_13h29.40.856,Online_SceneSrcMD_R,2020.2.10,MacIntel,60,,,,,,,,,,,,,,,,,,,,,,,,,0,7,7,7,1,E2-3266_Rec.png,1,E2-3266_SrcRec.png,0,,,,,,,,,,,,,,,,
,,,,,,,,,,,,,,,,262,1,2023-12-13_13h29.40.856,Online_SceneSrcMD_R,2020.2.10,MacIntel,60,,,,,,,,,,,,,,,,,,,,l,3.266,1,3,1,,,,,,,,,,d,2.8706,0,1,0,0,0,0,1,,,,,,,
,,,,,,,,,,,,,,,,262,1,2023-12-13_13h29.40.856,Online_SceneSrcMD_R,2020.2.10,MacIntel,60,,,,,,,,,,,,,,,,,,,,,,,,,0,8,8,8,1,N2-2270_Rec.png,1,N2-2270Real.png,1,,,,,,,,,,,,,,,,
,,,,,,,,,,,,,,,,262,1,2023-12-13_13h29.40.856,Online_SceneSrcMD_R,2020.2.10,MacIntel,60,,,,,,,,,,,,,,,,,,,,a,1.4511,0,3,0,0,9,9,9,1,N1-2240_Rec.png,0,N1-2240_SrcRec.png,0,,,,,,,,,,,,,,,,
,,,,,,,,,,,,,,,,262,1,2023-12-13_13h29.40.856,Online_SceneSrcMD_R,2020.2.10,MacIntel,60,,,,,,,,,,,,,,,,,,,,k,6.658300001,1,2,1,,,,,,,,,,d,1.781799999,0,1,0,0,0,0,1,,,,,,,
,,,,,,,,,,,,,,,,262,1,2023-12-13_13h29.40.856,Online_SceneSrcMD_R,2020.2.10,MacIntel,60,,,,,,,,,,,,,,,,,,,,,,,,,0,10,10,10,1,N2-5779_Rec.png,1,N2-5779Real.png,1,,,,,,,,,,,,,,,,
,,,,,,,,,,,,,,,,262,1,2023-12-13_13h29.40.856,Online_SceneSrcMD_R,2020.2.10,MacIntel,60,,,,,,,,,,,,,,,,,,,,j,3.468700001,1,1,1,,,,,,,,,,d,2.3856,0,1,0,0,0,0,1,,,,,,,
,,,,,,,,,,,,,,,,262,1,2023-12-13_13h29.40.856,Online_SceneSrcMD_R,2020.2.10,MacIntel,60,,,,,,,,,,,,,,,,,,,,,,,,,0,11,11,11,1,E1-1274_Rec.png,0,E1-1274Real.png,1,,,,,,,,,,,,,,,,
,,,,,,,,,,,,,,,,262,1,2023-12-13_13h29.40.856,Online_SceneSrcMD_R,2020.2.10,MacIntel,60,,,,,,,,,,,,,,,,,,,,a,2.014800001,0,3,0,0,12,12,12,1,E2-9921_Rec.png,1,E2-9921_SrcRec.png,0,,,,,,,,,,,,,,,,
,,,,,,,,,,,,,,,,262,1,2023-12-13_13h29.40.856,Online_SceneSrcMD_R,2020.2.10,MacIntel,60,,,,,,,,,,,,,,,,,,,,a,1.387800001,0,3,0,0,13,13,13,1,E1-2717_Rec.png,0,E1-2717Real.png,1,,,,,,,,,,,,,,,,
,,,,,,,,,,,,,,,,262,1,2023-12-13_13h29.40.856,Online_SceneSrcMD_R,2020.2.10,MacIntel,60,,,,,,,,,,,,,,,,,,,,a,7.683299999,0,3,0,0,14,14,14,1,N1-5994_Rec.png,0,N1-5994_SrcRec.png,0,,,,,,,,,,,,,,,,
,,,,,,,,,,,,,,,,262,1,2023-12-13_13h29.40.856,Online_SceneSrcMD_R,2020.2.10,MacIntel,60,,,,,,,,,,,,,,,,,,,,a,1.044300001,0,3,0,0,15,15,15,1,N1-5410_Rec.png,0,N1-5410Real.png,1,,,,,,,,,,,,,,,,
,,,,,,,,,,,,,,,,262,1,2023-12-13_13h29.40.856,Online_SceneSrcMD_R,2020.2.10,MacIntel,60,,,,,,,,,,,,,,,,,,,,l,1.3269,1,3,1,,,,,,,,,,k,3.565900002,1,2,0,0,0,0,1,,,,,,,
,,,,,,,,,,,,,,,,262,1,2023-12-13_13h29.40.856,Online_SceneSrcMD_R,2020.2.10,MacIntel,60,,,,,,,,,,,,,,,,,,,,,,,,,0,16,16,16,1,E2-2683_Rec.png,1,E2-2683_SrcRec.png,0,,,,,,,,,,,,,,,,
,,,,,,,,,,,,,,,,262,1,2023-12-13_13h29.40.856,Online_SceneSrcMD_R,2020.2.10,MacIntel,60,,,,,,,,,,,,,,,,,,,,l,1.7986,1,3,1,,,,,,,,,,d,6.451099998,0,1,0,0,0,0,1,,,,,,,
,,,,,,,,,,,,,,,,262,1,2023-12-13_13h29.40.856,Online_SceneSrcMD_R,2020.2.10,MacIntel,60,,,,,,,,,,,,,,,,,,,,,,,,,0,17,17,17,1,N2-2579_Rec.png,1,N2-2579_SrcRec.png,0,,,,,,,,,,,,,,,,
,,,,,,,,,,,,,,,,262,1,2023-12-13_13h29.40.856,Online_SceneSrcMD_R,2020.2.10,MacIntel,60,,,,,,,,,,,,,,,,,,,,d,4.387799999,0,1,0,0,18,18,18,1,E2-6243_Rec.png,1,E2-6243Real.png,1,,,,,,,,,,,,,,,,
,,,,,,,,,,,,,,,,262,1,2023-12-13_13h29.40.856,Online_SceneSrcMD_R,2020.2.10,MacIntel,60,,,,,,,,,,,,,,,,,,,,d,2.802900002,0,1,0,0,19,19,19,1,E2-9424_Rec.png,1,E2-9424_SrcRec.png,0,,,,,,,,,,,,,,,,
,,,,,,,,,,,,,,,,262,1,2023-12-13_13h29.40.856,Online_SceneSrcMD_R,2020.2.10,MacIntel,60,,,,,,,,,,,,,,,,,,,,,,,,,,,,,,,,,,,,,,,,,,,0,5,5,5,1,BlockTwelve.csv,Src_BlockSix.csv
